#Rx
# X(m), Y(m), Z(m), Distance(m), Power (dBm) Phase (deg)
1 0.609402 6.15212 1 0 -56.9931 179.17
2 0.800379 6.21151 1 0.2 -61.5741 136.641
3 0.991404 6.27073 1 0.4 -59.5864 99.9811
4 1.18335 6.32688 1 0.6 -56.2384 32.7621
5 1.3769 6.37726 1 0.8 -57.4493 39.9663
6 1.57092 6.42576 1 1 -56.2657 7.76291
7 1.76398 6.47792 1 1.2 -59.2294 -33.3684
8 1.95473 6.53799 1 1.4 -60.1091 -89.2516
9 2.14355 6.6039 1 1.6 -65.0891 -179.512
10 2.33173 6.67162 1 1.8 -70.6527 81.8964
11 2.52059 6.73742 1 2 -63.9328 -93.1456
12 2.71009 6.80135 1 2.2 -66.5252 95.9108
13 2.9001 6.86375 1 2.4 -74.281 -62.4479
14 3.0923 6.91896 1 2.6 -73.9309 152.927
15 3.28767 6.96155 1 2.8 -73.6188 37.2192
16 3.4848 6.99524 1 3 -67.6854 175.477
17 3.68179 7.02977 1 3.2 -67.2175 -26.6913
18 3.87771 7.06992 1 3.4 -71.5703 -165.151
19 4.07381 7.1092 1 3.6 -64.1019 -4.75038
20 4.27164 7.13817 1 3.8 -62.9105 150.057
21 4.47105 7.15325 1 4 -67.3222 -12.381
22 4.66907 7.16466 1 4.2 -72.5937 -170.254
23 4.7136 7.16682 1 4.4 -64.6822 61.0373
24 4.91318 7.17979 1 4.6 -72.6391 -91.994
25 5.11294 7.18937 1 4.8 -49.8054 -105.305
26 5.31283 7.18733 1 5 -46.6986 150.534
27 5.51092 7.16037 1 5.2 -50.1628 41.663
28 5.709 7.13328 1 5.4 -45.3463 53.4275
29 5.90889 7.12956 1 5.6 -50.9055 -92.4503
30 6.10886 7.12911 1 5.8 -49.0908 137.532
31 6.30737 7.10684 1 6 -56.3695 -7.72687
32 6.49871 7.04926 1 6.2 -55.0155 32.132
33 6.68433 6.97484 1 6.4 -56.519 -58.3978
34 6.87057 6.90203 1 6.6 -54.1275 -138.834
35 7.06118 6.84152 1 6.8 -49.8703 154.807
36 7.25318 6.78554 1 7 -49.8019 80.5923
37 7.44777 6.73954 1 7.2 -52.0852 -10.7175
38 7.64632 6.7183 1 7.4 -46.783 131.24
39 7.84628 6.72168 1 7.6 -45.8398 -135.478
40 8.04511 6.70352 1 7.8 -50.5532 0.423725
41 8.23969 6.65751 1 8 -48.7888 172.477
42 8.43288 6.60581 1 8.2 -51.3577 22.5502
43 8.62794 6.56172 1 8.4 -55.1137 143.166
44 8.82376 6.52108 1 8.6 -57.8849 -127.658
45 9.01866 6.47628 1 8.8 -53.619 21.7051
46 9.21023 6.41912 1 9 -52.5538 149.743
47 9.39558 6.34408 1 9.2 -53.6446 -28.0781
48 9.57815 6.26244 1 9.4 -60.3786 4.61688
49 9.76454 6.1902 1 9.6 -65.5822 161.949
50 9.95753 6.13798 1 9.8 -66.5893 39.0201
51 10.152 6.09121 1 10 -61.2961 84.1262
52 10.3434 6.0334 1 10.2 -62.5525 129.914
53 10.5363 5.99216 1 10.4 -59.265 50.728
54 10.7005 5.92367 1 10.6 -58.9628 -35.2696
55 10.8515 5.79264 1 10.8 -57.0186 -173.603
56 10.988 5.64668 1 11 -56.2786 50.9454
57 11.0924 5.47678 1 11.2 -58.7282 -2.5587
58 11.1623 5.28951 1 11.4 -56.3021 30.7381
59 11.2166 5.09705 1 11.6 -51.8969 100.314
60 11.2662 4.9033 1 11.8 -57.4345 128.315
61 11.2985 4.70628 1 12 -53.5779 -135.426
62 11.3058 4.52798 1 12.2 -52.7692 93.2555
63 11.3084 4.32799 1 12.4 -53.2251 -172.293
64 11.3161 4.12843 1 12.6 -52.7855 -106.881
65 11.2684 3.93757 1 12.8 -53.0494 58.0639
66 11.222 3.74633 1 13 -50.7069 -163.034
67 11.0842 3.62067 1 13.2 -55.3995 -89.5256
68 10.919 3.50947 1 13.4 -65.0633 109.779
69 10.7848 3.36129 1 13.6 -61.4989 -106.837
70 10.6506 3.21319 1 13.8 -58.1358 22.7902
71 10.5011 3.08028 1 14 -65.4421 129.416
72 10.3759 2.92577 1 14.2 -61.8457 -77.4701
73 10.3495 2.72957 1 14.4 -53.682 -19.6081
74 10.3523 2.52988 1 14.6 -57.5849 57.2855
75 10.2318 2.38088 1 14.8 -51.4594 135.047
76 10.0575 2.29043 1 15 -56.3672 160.146
77 9.86225 2.33134 1 15.2 -50.8344 -115.59
78 9.67133 2.39086 1 15.4 -52.1916 -33.898
79 9.48105 2.45243 1 15.6 -56.1253 34.7298
80 9.29013 2.51199 1 15.8 -58.9716 -44.2701
81 9.09748 2.56562 1 16 -60.2872 -35.5558
82 8.90176 2.60655 1 16.2 -50.0912 -165.814
83 8.70397 2.6361 1 16.4 -40.6006 99.2778
84 8.50508 2.65705 1 16.6 -41.6342 -14.6439
85 8.30568 2.67232 1 16.8 -42.2848 -143.036
86 8.10595 2.68204 1 17 -49.2195 108.922
87 7.90601 2.67847 1 17.2 -47.1716 0.317804
88 7.70608 2.67393 1 17.4 -46.3385 -163.688
89 7.50633 2.68297 1 17.6 -45.4485 126.212
90 7.30711 2.70064 1 17.8 -49.9381 -140.267
91 7.10804 2.71976 1 18 -50.6469 -99.9977
92 6.90869 2.73586 1 18.2 -51.7853 -63.0935
93 6.7093 2.75152 1 18.4 -57.9541 172.957
94 6.5098 2.76552 1 18.6 -51.576 -81.426
95 6.31011 2.77668 1 18.8 -46.4159 2.80697
96 6.11033 2.786 1 19 -49.4254 148.167
97 5.91049 2.79383 1 19.2 -56.3284 165.508
98 5.71058 2.79969 1 19.4 -47.6465 46.7162
99 5.51061 2.80264 1 19.6 -49.4641 52.6261
100 5.31063 2.80064 1 19.8 -56.6618 13.1906
101 5.11071 2.79502 1 20 -55.8659 -80.2695
102 4.91079 2.78948 1 20.2 -56.3348 -145.201
103 4.71082 2.78652 1 20.4 -52.4488 140.973
104 4.51083 2.78453 1 20.6 -57.4957 49.817
105 4.31084 2.783 1 20.8 -58.3217 -29.6822
106 4.11086 2.78179 1 21 -56.0945 177.739
107 3.91086 2.78084 1 21.2 -52.6483 75.9877
108 3.71087 2.78176 1 21.4 -50.5356 -41.2849
109 3.51088 2.78382 1 21.6 -51.9678 180
110 3.31089 2.78466 1 21.8 -52.1127 57.8707
111 3.11092 2.78175 1 22 -53.7803 -106.246
112 2.9111 2.77344 1 22.2 -55.1366 127.992
113 2.71146 2.76162 1 22.4 -57.8767 71.9082
114 2.51206 2.74624 1 22.6 -51.6433 -73.8671
115 2.31309 2.7261 1 22.8 -50.6309 140.738
116 2.11522 2.69719 1 23 -56.9017 19.5978
117 1.92099 2.65011 1 23.2 -58.1731 -93.9435
118 1.73261 2.5831 1 23.4 -63.7815 144.189
119 1.54519 2.51501 1 23.6 -67.6267 -96.6744
120 1.43235 2.35628 1 23.8 -67.0043 -11.161
121 1.40004 2.15924 1 24 -65.8588 -27.1459
122 1.39511 1.95939 1 24.2 -52.8194 -52.8169
123 1.40989 1.76003 1 24.4 -51.0071 137.537
124 1.44647 1.56349 1 24.6 -46.3014 -21.6536
125 1.50314 1.37181 1 24.8 -48.3323 -117.512
126 1.58778 1.19097 1 25 -59.6967 166.53
127 1.72355 1.04659 1 25.2 -47.5677 -101.356
128 1.90939 0.975552 1 25.4 -51.1136 11.5933
129 2.10655 0.942243 1 25.6 -53.5526 -52.6113
130 2.30446 0.913701 1 25.8 -47.8089 130.316
131 2.50385 0.898474 1 26 -47.7659 -74.9493
132 2.70369 0.890706 1 26.2 -56.2694 91.7768
133 2.90365 0.886827 1 26.4 -48.2932 18.8732
134 3.10361 0.88904 1 26.6 -43.9201 -160.238
135 3.30328 0.900211 1 26.8 -42.9616 5.4673
136 3.50273 0.91506 1 27 -42.9882 176.899
137 3.70173 0.934871 1 27.2 -42.8648 -26.8397
138 3.90041 0.957768 1 27.4 -40.638 130.81
