#Rx
# X(m), Y(m), Z(m), Distance(m), Power (dBm) Phase (deg)
1 0.609402 6.15212 1 0 -54.4624 157.667
2 0.800379 6.21151 1 0.2 -52.3127 1.27429
3 0.991404 6.27073 1 0.4 -51.4671 -171.872
4 1.18335 6.32688 1 0.6 -55.9452 74.6183
5 1.3769 6.37726 1 0.8 -50.4241 -96.0873
6 1.57092 6.42576 1 1 -57.3955 82.5962
7 1.76398 6.47792 1 1.2 -51.3414 -45.3596
8 1.95473 6.53799 1 1.4 -55.3958 160.609
9 2.14355 6.6039 1 1.6 -50.6727 -14.8755
10 2.33173 6.67162 1 1.8 -53.8537 -153.076
11 2.52059 6.73742 1 2 -50.53 -11.694
12 2.71009 6.80135 1 2.2 -49.8702 -154.038
13 2.9001 6.86375 1 2.4 -53.4464 15.9645
14 3.0923 6.91896 1 2.6 -51.4671 -147.567
15 3.28767 6.96155 1 2.8 -51.6766 75.6896
16 3.4848 6.99524 1 3 -54.1008 -90.2244
17 3.68179 7.02977 1 3.2 -49.339 129.954
18 3.87771 7.06992 1 3.4 -51.4264 -55.9464
19 4.07381 7.1092 1 3.6 -48.8244 143.986
20 4.27164 7.13817 1 3.8 -53.8231 -12.1271
21 4.47105 7.15325 1 4 -54.5279 -172.51
22 4.66907 7.16466 1 4.2 -53.2863 21.0882
23 4.7136 7.16682 1 4.4 -52.3472 138.565
24 4.91318 7.17979 1 4.6 -53.4705 -4.26138
25 5.11294 7.18937 1 4.8 -51.9562 15.5014
26 5.31283 7.18733 1 5 -50.4825 -128.796
27 5.51092 7.16037 1 5.2 -53.4279 17.684
28 5.709 7.13328 1 5.4 -50.2515 -149.696
29 5.90889 7.12956 1 5.6 -52.3989 38.015
30 6.10886 7.12911 1 5.8 -50.7422 -153.218
31 6.30737 7.10684 1 6 -49.4207 25.1559
32 6.49871 7.04926 1 6.2 -49.3341 146.406
33 6.68433 6.97484 1 6.4 -48.897 -95.4637
34 6.87057 6.90203 1 6.6 -51.922 15.6354
35 7.06118 6.84152 1 6.8 -46.9923 130.264
36 7.25318 6.78554 1 7 -49.219 -158.897
37 7.44777 6.73954 1 7.2 -49.6214 -78.3314
38 7.64632 6.7183 1 7.4 -53.9279 52.277
39 7.84628 6.72168 1 7.6 -49.8441 -171.205
40 8.04511 6.70352 1 7.8 -45.1264 -25.588
41 8.23969 6.65751 1 8 -58.4063 16.5748
42 8.43288 6.60581 1 8.2 -62.7579 113.109
43 8.62794 6.56172 1 8.4 -54.5331 169.072
44 8.82376 6.52108 1 8.6 -53.1389 -172.472
45 9.01866 6.47628 1 8.8 -66.5753 -90.7877
46 9.21023 6.41912 1 9 -63.7236 -7.59553
47 9.39558 6.34408 1 9.2 -55.3579 -52.0187
48 9.57815 6.26244 1 9.4 -50.2842 -165.239
49 9.76454 6.1902 1 9.6 -47.7581 85.1165
50 9.95753 6.13798 1 9.8 -44.1317 26.2862
51 10.152 6.09121 1 10 -42.0493 -106.848
52 10.3434 6.0334 1 10.2 -42.1798 72.2518
53 10.5363 5.99216 1 10.4 -43.5319 -117.074
54 10.7005 5.92367 1 10.6 -44.9184 -3.54009
55 10.8515 5.79264 1 10.8 -53.381 -144.496
56 10.988 5.64668 1 11 -50.1931 8.18245
57 11.0924 5.47678 1 11.2 -48.2662 76.864
58 11.1623 5.28951 1 11.4 -44.6973 63.1176
59 11.2166 5.09705 1 11.6 -42.8822 11.2081
60 11.2662 4.9033 1 11.8 -47.9612 -55.2274
61 11.2985 4.70628 1 12 -46.3025 175.138
62 11.3058 4.52798 1 12.2 -41.3408 91.8498
63 11.3084 4.32799 1 12.4 -41.7603 -51.9784
64 11.3161 4.12843 1 12.6 -42.5062 138.309
65 11.2684 3.93757 1 12.8 -44.1893 -10.9736
66 11.222 3.74633 1 13 -49.0814 -151.185
67 11.0842 3.62067 1 13.2 -53.5142 160.854
68 10.919 3.50947 1 13.4 -43.8736 116.547
69 10.7848 3.36129 1 13.6 -43.353 -157.105
70 10.6506 3.21319 1 13.8 -46.5687 88.8604
71 10.5011 3.08028 1 14 -48.1249 8.49464
72 10.3759 2.92577 1 14.2 -48.7236 177.288
73 10.3495 2.72957 1 14.4 -48.2567 18.7583
74 10.3523 2.52988 1 14.6 -49.6445 -132.042
75 10.2318 2.38088 1 14.8 -50.8167 101.827
76 10.0575 2.29043 1 15 -51.9316 85.9721
77 9.86225 2.33134 1 15.2 -51.7942 -5.75872
78 9.67133 2.39086 1 15.4 -57.7204 -7.08288
79 9.48105 2.45243 1 15.6 -57.7141 28.5764
80 9.29013 2.51199 1 15.8 -56.6133 48.0216
81 9.09748 2.56562 1 16 -51.0785 30.809
82 8.90176 2.60655 1 16.2 -50.7143 -141.47
83 8.70397 2.6361 1 16.4 -47.1601 20.014
84 8.50508 2.65705 1 16.6 -46.8983 113.985
85 8.30568 2.67232 1 16.8 -46.8714 -156.14
86 8.10595 2.68204 1 17 -47.2574 -98.5725
87 7.90601 2.67847 1 17.2 -47.1721 -68.7795
88 7.70608 2.67393 1 17.4 -49.1099 -59.8882
89 7.50633 2.68297 1 17.6 -51.0964 -30.5894
90 7.30711 2.70064 1 17.8 -51.2752 0.180793
91 7.10804 2.71976 1 18 -51.1474 32.6246
92 6.90869 2.73586 1 18.2 -50.674 40.5586
93 6.7093 2.75152 1 18.4 -52.4504 47.2878
94 6.5098 2.76552 1 18.6 -50.4658 31.5242
95 6.31011 2.77668 1 18.8 -53.8088 28.2149
96 6.11033 2.786 1 19 -51.0296 -12.1682
97 5.91049 2.79383 1 19.2 -53.0163 -70.2504
98 5.71058 2.79969 1 19.4 -53.6794 -63.7701
99 5.51061 2.80264 1 19.6 -55.0083 -156.924
100 5.31063 2.80064 1 19.8 -54.4963 124.396
101 5.11071 2.79502 1 20 -52.7957 36.6231
102 4.91079 2.78948 1 20.2 -53.3956 -46.2549
103 4.71082 2.78652 1 20.4 -54.6284 -145.512
104 4.51083 2.78453 1 20.6 -54.9738 114.096
105 4.31084 2.783 1 20.8 -59.4739 -6.40917
106 4.11086 2.78179 1 21 -58.0151 -127.622
107 3.91086 2.78084 1 21.2 -53.9941 132.282
108 3.71087 2.78176 1 21.4 -53.7972 25.2021
109 3.51088 2.78382 1 21.6 -56.929 -87.4815
110 3.31089 2.78466 1 21.8 -58.2834 179.777
111 3.11092 2.78175 1 22 -60.8174 69.2249
112 2.9111 2.77344 1 22.2 -60.5144 -136.497
113 2.71146 2.76162 1 22.4 -56.0518 -1.25532
114 2.51206 2.74624 1 22.6 -56.031 -115.05
115 2.31309 2.7261 1 22.8 -67.3405 103.457
116 2.11522 2.69719 1 23 -59.4905 -148.281
117 1.92099 2.65011 1 23.2 -58.9637 89.1258
118 1.73261 2.5831 1 23.4 -56.9234 -166.219
119 1.54519 2.51501 1 23.6 -75.4283 44.5096
120 1.43235 2.35628 1 23.8 -59.4553 -162.477
121 1.40004 2.15924 1 24 -58.5205 -100.1
122 1.39511 1.95939 1 24.2 -54.1253 -171.031
123 1.40989 1.76003 1 24.4 -58.4427 -61.0421
124 1.44647 1.56349 1 24.6 -60.29 -30.2117
125 1.50314 1.37181 1 24.8 -58.197 174.839
126 1.58778 1.19097 1 25 -64.5588 94.6233
127 1.72355 1.04659 1 25.2 -57.4552 159.777
128 1.90939 0.975552 1 25.4 -59.9525 139.995
129 2.10655 0.942243 1 25.6 -60.6452 158.61
130 2.30446 0.913701 1 25.8 -54.5634 -163.759
131 2.50385 0.898474 1 26 -55.1801 -83.4436
132 2.70369 0.890706 1 26.2 -56.2402 -1.21815
133 2.90365 0.886827 1 26.4 -56.1852 61.6308
134 3.10361 0.88904 1 26.6 -56.8549 162.821
135 3.30328 0.900211 1 26.8 -58.4356 -93.8599
136 3.50273 0.91506 1 27 -56.0355 8.48591
137 3.70173 0.934871 1 27.2 -56.0109 112.761
138 3.90041 0.957768 1 27.4 -55.199 175.195
