#Rx
# X(m), Y(m), Z(m), Distance(m), Power (dBm) Phase (deg)
1 0.609402 6.15212 1 0 -52.7071 -77.0897
2 0.800379 6.21151 1 0.2 -48.5003 52.4528
3 0.991404 6.27073 1 0.4 -64.5103 43.1083
4 1.18335 6.32688 1 0.6 -51.6854 24.8418
5 1.3769 6.37726 1 0.8 -50.8803 -29.1052
6 1.57092 6.42576 1 1 -47.9401 164.092
7 1.76398 6.47792 1 1.2 -46.8749 28.2598
8 1.95473 6.53799 1 1.4 -58.6774 -105.261
9 2.14355 6.6039 1 1.6 -52.1676 68.7896
10 2.33173 6.67162 1 1.8 -49.2305 18.7174
11 2.52059 6.73742 1 2 -44.9081 123.192
12 2.71009 6.80135 1 2.2 -47.5039 -165.551
13 2.9001 6.86375 1 2.4 -43.5904 -157.937
14 3.0923 6.91896 1 2.6 -43.1865 -159.021
15 3.28767 6.96155 1 2.8 -45.0479 147.154
16 3.4848 6.99524 1 3 -44.3915 18.1892
17 3.68179 7.02977 1 3.2 -47.0757 -28.8577
18 3.87771 7.06992 1 3.4 -50.2825 -126.029
19 4.07381 7.1092 1 3.6 -44.0283 138.993
20 4.27164 7.13817 1 3.8 -42.8492 6.67034
21 4.47105 7.15325 1 4 -41.8412 -121.163
22 4.66907 7.16466 1 4.2 -44.9419 96.2744
23 4.7136 7.16682 1 4.4 -47.5332 -25.7002
24 4.91318 7.17979 1 4.6 -45.4014 176.286
25 5.11294 7.18937 1 4.8 -48.0851 -139.996
26 5.31283 7.18733 1 5 -46.8906 54.8929
27 5.51092 7.16037 1 5.2 -48.5023 -137.785
28 5.709 7.13328 1 5.4 -47.7151 32.0363
29 5.90889 7.12956 1 5.6 -48.9034 -154.274
30 6.10886 7.12911 1 5.8 -49.3766 36.1447
31 6.30737 7.10684 1 6 -48.3088 152.391
32 6.49871 7.04926 1 6.2 -51.1941 18.7068
33 6.68433 6.97484 1 6.4 -53.1948 -177.275
34 6.87057 6.90203 1 6.6 -53.2675 -0.771348
35 7.06118 6.84152 1 6.8 -48.7447 177.353
36 7.25318 6.78554 1 7 -50.6956 -3.5412
37 7.44777 6.73954 1 7.2 -50.1534 149.37
38 7.64632 6.7183 1 7.4 -50.9639 -43.661
39 7.84628 6.72168 1 7.6 -50.4252 113.298
40 8.04511 6.70352 1 7.8 -49.5086 -90.7882
41 8.23969 6.65751 1 8 -49.4336 62.8559
42 8.43288 6.60581 1 8.2 -51.5542 -117.197
43 8.62794 6.56172 1 8.4 -49.1551 24.7583
44 8.82376 6.52108 1 8.6 -56.0134 153.485
45 9.01866 6.47628 1 8.8 -52.4369 -41.9053
46 9.21023 6.41912 1 9 -52.1379 94.5625
47 9.39558 6.34408 1 9.2 -56.0168 -67.0327
48 9.57815 6.26244 1 9.4 -51.3336 84.4204
49 9.76454 6.1902 1 9.6 -50.2297 -117.351
50 9.95753 6.13798 1 9.8 -52.1688 39.4145
51 10.152 6.09121 1 10 -49.0993 171.445
52 10.3434 6.0334 1 10.2 -49.6162 -20.2891
53 10.5363 5.99216 1 10.4 -50.1763 134.383
54 10.7005 5.92367 1 10.6 -60.5252 123.175
55 10.8515 5.79264 1 10.8 -61.8952 -88.0696
56 10.988 5.64668 1 11 -61.8583 -138.098
57 11.0924 5.47678 1 11.2 -63.0868 -29.0194
58 11.1623 5.28951 1 11.4 -66.0345 35.664
59 11.2166 5.09705 1 11.6 -58.351 167.567
60 11.2662 4.9033 1 11.8 -69.7675 57.1279
61 11.2985 4.70628 1 12 -52.1067 111.684
62 11.3058 4.52798 1 12.2 -47.994 -1.65928
63 11.3084 4.32799 1 12.4 -48.0421 -171.414
64 11.3161 4.12843 1 12.6 -52.579 18.7551
65 11.2684 3.93757 1 12.8 -60.8489 96.0244
66 11.222 3.74633 1 13 -78.6296 -30.6326
67 11.0842 3.62067 1 13.2 -64.5409 -118.517
68 10.919 3.50947 1 13.4 -71.7849 10.0324
69 10.7848 3.36129 1 13.6 -69.6582 -62.3146
70 10.6506 3.21319 1 13.8 -67.6582 169.237
71 10.5011 3.08028 1 14 -72.809 -27.0572
72 10.3759 2.92577 1 14.2 -81.6393 53.9984
73 10.3495 2.72957 1 14.4 -74.713 43.0339
74 10.3523 2.52988 1 14.6 -76.0726 -150.231
75 10.2318 2.38088 1 14.8 -88.0889 164.731
76 10.0575 2.29043 1 15 -75.9178 10.1694
77 9.86225 2.33134 1 15.2 -76.404 -127.075
78 9.67133 2.39086 1 15.4 -76.2698 94.6528
79 9.48105 2.45243 1 15.6 -71.2207 -62.0777
80 9.29013 2.51199 1 15.8 -70.7874 -103.209
81 9.09748 2.56562 1 16 -87.6075 -152.94
82 8.90176 2.60655 1 16.2 -69.868 -148.099
83 8.70397 2.6361 1 16.4 -72.5157 38.9129
84 8.50508 2.65705 1 16.6 -71.7625 -132.23
85 8.30568 2.67232 1 16.8 -70.5847 47.3571
86 8.10595 2.68204 1 17 -70.9133 -112.301
87 7.90601 2.67847 1 17.2 -73.2877 29.3655
88 7.70608 2.67393 1 17.4 -67.0159 7.5431
89 7.50633 2.68297 1 17.6 -64.4105 80.376
90 7.30711 2.70064 1 17.8 -83.2738 141.428
91 7.10804 2.71976 1 18 -62.7364 -89.5463
92 6.90869 2.73586 1 18.2 -66.3652 15.8607
93 6.7093 2.75152 1 18.4 -67.307 -91.7788
94 6.5098 2.76552 1 18.6 -62.791 19.2161
95 6.31011 2.77668 1 18.8 -52.5862 140.199
96 6.11033 2.786 1 19 -50.599 -120.891
97 5.91049 2.79383 1 19.2 -50.3533 -35.931
98 5.71058 2.79969 1 19.4 -52.5049 41.3819
99 5.51061 2.80264 1 19.6 -58.882 54.3443
100 5.31063 2.80064 1 19.8 -54.9766 29.5343
101 5.11071 2.79502 1 20 -54.0075 36.7543
102 4.91079 2.78948 1 20.2 -50.8768 51.1514
103 4.71082 2.78652 1 20.4 -55.4004 56.4306
104 4.51083 2.78453 1 20.6 -59.0972 21.075
105 4.31084 2.783 1 20.8 -56.9078 -50.7041
106 4.11086 2.78179 1 21 -58.8185 -107.088
107 3.91086 2.78084 1 21.2 -49.8103 -100.341
108 3.71087 2.78176 1 21.4 -46.9466 -160.432
109 3.51088 2.78382 1 21.6 -49.4244 147.937
110 3.31089 2.78466 1 21.8 -52.0319 85.2618
111 3.11092 2.78175 1 22 -55.1536 -40.8509
112 2.9111 2.77344 1 22.2 -49.5326 118.061
113 2.71146 2.76162 1 22.4 -49.9705 -34.1616
114 2.51206 2.74624 1 22.6 -49.2423 166.984
115 2.31309 2.7261 1 22.8 -47.417 -41.8294
116 2.11522 2.69719 1 23 -53.4383 -23.0216
117 1.92099 2.65011 1 23.2 -45.5571 37.5023
118 1.73261 2.5831 1 23.4 -46.0244 7.44268
119 1.54519 2.51501 1 23.6 -50.3304 -96.0991
120 1.43235 2.35628 1 23.8 -49.8551 -101.741
121 1.40004 2.15924 1 24 -50.2238 147.516
122 1.39511 1.95939 1 24.2 -52.8608 92.8814
123 1.40989 1.76003 1 24.4 -52.6367 -99.8595
124 1.44647 1.56349 1 24.6 -52.5231 57.8595
125 1.50314 1.37181 1 24.8 -53.3255 -121.33
126 1.58778 1.19097 1 25 -51.6903 54.0233
127 1.72355 1.04659 1 25.2 -56.6411 -35.9905
128 1.90939 0.975552 1 25.4 -53.9319 8.44717
129 2.10655 0.942243 1 25.6 -50.2196 -171.69
130 2.30446 0.913701 1 25.8 -57.8647 104.833
131 2.50385 0.898474 1 26 -51.0196 -82.5965
132 2.70369 0.890706 1 26.2 -51.4934 71.8427
133 2.90365 0.886827 1 26.4 -61.0922 -49.9043
134 3.10361 0.88904 1 26.6 -56.0335 164.738
135 3.30328 0.900211 1 26.8 -48.4242 5.10776
136 3.50273 0.91506 1 27 -51.8116 160.548
137 3.70173 0.934871 1 27.2 -51.1335 -65.0907
138 3.90041 0.957768 1 27.4 -49.2835 116.846
