#Rx
# X(m), Y(m), Z(m), Distance(m), Power (dBm) Phase (deg)
1 0.609402 6.15212 1 0 -49.9346 -92.0078
2 0.800379 6.21151 1 0.2 -48.6139 101.283
3 0.991404 6.27073 1 0.4 -46.6601 -66.728
4 1.18335 6.32688 1 0.6 -46.0948 121.384
5 1.3769 6.37726 1 0.8 -47.0121 -49.5612
6 1.57092 6.42576 1 1 -46.6074 147.666
7 1.76398 6.47792 1 1.2 -44.8849 -19.5459
8 1.95473 6.53799 1 1.4 -44.9573 153.739
9 2.14355 6.6039 1 1.6 -46.1604 -18.4323
10 2.33173 6.67162 1 1.8 -44.4921 160.152
11 2.52059 6.73742 1 2 -45.9505 14.1141
12 2.71009 6.80135 1 2.2 -63.3365 100.365
13 2.9001 6.86375 1 2.4 -55.3549 -154.916
14 3.0923 6.91896 1 2.6 -53.974 36.4155
15 3.28767 6.96155 1 2.8 -50.7274 -165.132
16 3.4848 6.99524 1 3 -45.0036 -61.5513
17 3.68179 7.02977 1 3.2 -46.1539 84.578
18 3.87771 7.06992 1 3.4 -48.8541 -131.308
19 4.07381 7.1092 1 3.6 -49.0356 19.1206
20 4.27164 7.13817 1 3.8 -44.1693 116.979
21 4.47105 7.15325 1 4 -43.7621 -122.789
22 4.66907 7.16466 1 4.2 -41.3142 -45.9853
23 4.7136 7.16682 1 4.4 -41.6436 41.5686
24 4.91318 7.17979 1 4.6 -44.9535 100.271
25 5.11294 7.18937 1 4.8 -47.8427 -64.8271
26 5.31283 7.18733 1 5 -46.9953 -33.9181
27 5.51092 7.16037 1 5.2 -62.857 -103.916
28 5.709 7.13328 1 5.4 -66.0523 -150.362
29 5.90889 7.12956 1 5.6 -56.763 -108.738
30 6.10886 7.12911 1 5.8 -48.3829 113.111
31 6.30737 7.10684 1 6 -47.5381 -93.8285
32 6.49871 7.04926 1 6.2 -64.4339 55.6279
33 6.68433 6.97484 1 6.4 -47.6404 -79.7837
34 6.87057 6.90203 1 6.6 -59.8093 -157.424
35 7.06118 6.84152 1 6.8 -51.6368 166.622
36 7.25318 6.78554 1 7 -49.7897 14.2298
37 7.44777 6.73954 1 7.2 -51.9473 -175.92
38 7.64632 6.7183 1 7.4 -53.7542 -27.4672
39 7.84628 6.72168 1 7.6 -49.4209 139.323
40 8.04511 6.70352 1 7.8 -62.8664 -149.594
41 8.23969 6.65751 1 8 -48.8124 155.986
42 8.43288 6.60581 1 8.2 -46.314 -160.778
43 8.62794 6.56172 1 8.4 -49.5635 133.426
44 8.82376 6.52108 1 8.6 -49.4799 128.67
45 9.01866 6.47628 1 8.8 -49.9599 60.2278
46 9.21023 6.41912 1 9 -51.8807 -83.5106
47 9.39558 6.34408 1 9.2 -49.4615 -11.8513
48 9.57815 6.26244 1 9.4 -47.1839 104.891
49 9.76454 6.1902 1 9.6 -50.6711 -58.4968
50 9.95753 6.13798 1 9.8 -53.8854 116.738
51 10.152 6.09121 1 10 -57.0038 35.1134
52 10.3434 6.0334 1 10.2 -55.623 -174.844
53 10.5363 5.99216 1 10.4 -53.6752 17.2458
54 10.7005 5.92367 1 10.6 -48.3661 11.68
55 10.8515 5.79264 1 10.8 -60.2944 -86.7083
56 10.988 5.64668 1 11 -65.8602 63.3695
57 11.0924 5.47678 1 11.2 -54.8034 -86.8955
58 11.1623 5.28951 1 11.4 -53.7905 -144.152
59 11.2166 5.09705 1 11.6 -46.9649 146.755
60 11.2662 4.9033 1 11.8 -47.7459 132.781
61 11.2985 4.70628 1 12 -53.7245 80.9641
62 11.3058 4.52798 1 12.2 -47.3157 140.011
63 11.3084 4.32799 1 12.4 -48.0561 165.064
64 11.3161 4.12843 1 12.6 -51.7944 146.473
65 11.2684 3.93757 1 12.8 -49.1659 -98.1472
66 11.222 3.74633 1 13 -53.8373 178.534
67 11.0842 3.62067 1 13.2 -51.2702 178.173
68 10.919 3.50947 1 13.4 -54.1265 -88.7163
69 10.7848 3.36129 1 13.6 -57.753 -139.372
70 10.6506 3.21319 1 13.8 -52.3433 168.714
71 10.5011 3.08028 1 14 -51.4054 -60.1514
72 10.3759 2.92577 1 14.2 -53.404 120.379
73 10.3495 2.72957 1 14.4 -53.6214 105.972
74 10.3523 2.52988 1 14.6 -55.2306 -0.870109
75 10.2318 2.38088 1 14.8 -52.3336 178.411
76 10.0575 2.29043 1 15 -52.7233 -153.208
77 9.86225 2.33134 1 15.2 -53.0708 -159.773
78 9.67133 2.39086 1 15.4 -51.5198 -114.372
79 9.48105 2.45243 1 15.6 -52.3143 -111.508
80 9.29013 2.51199 1 15.8 -54.0357 -90.224
81 9.09748 2.56562 1 16 -54.5681 -102.902
82 8.90176 2.60655 1 16.2 -51.1859 179.395
83 8.70397 2.6361 1 16.4 -51.1584 97.0357
84 8.50508 2.65705 1 16.6 -48.9066 -67.1214
85 8.30568 2.67232 1 16.8 -52.9798 130.606
86 8.10595 2.68204 1 17 -47.9122 -73.3819
87 7.90601 2.67847 1 17.2 -52.7632 31.762
88 7.70608 2.67393 1 17.4 -53.6317 75.1651
89 7.50633 2.68297 1 17.6 -58.7545 -140.034
90 7.30711 2.70064 1 17.8 -51.4212 -37.4344
91 7.10804 2.71976 1 18 -51.753 35.0279
92 6.90869 2.73586 1 18.2 -51.9184 89.596
93 6.7093 2.75152 1 18.4 -49.7345 113.869
94 6.5098 2.76552 1 18.6 -49.2124 116.59
95 6.31011 2.77668 1 18.8 -50.2856 73.5106
96 6.11033 2.786 1 19 -49.5746 31.716
97 5.91049 2.79383 1 19.2 -49.8652 -59.4323
98 5.71058 2.79969 1 19.4 -47.5736 -146.79
99 5.51061 2.80264 1 19.6 -53.4548 126.003
100 5.31063 2.80064 1 19.8 -48.8285 -40.2348
101 5.11071 2.79502 1 20 -47.4702 176.896
102 4.91079 2.78948 1 20.2 -50.2387 -25.2448
103 4.71082 2.78652 1 20.4 -48.8539 136.961
104 4.51083 2.78453 1 20.6 -53.3787 -78.1846
105 4.31084 2.783 1 20.8 -55.2346 122.618
106 4.11086 2.78179 1 21 -57.7572 -163.81
107 3.91086 2.78084 1 21.2 -53.9683 -90.9714
108 3.71087 2.78176 1 21.4 -53.4291 -26.1224
109 3.51088 2.78382 1 21.6 -53.5469 55.59
110 3.31089 2.78466 1 21.8 -55.2771 126.471
111 3.11092 2.78175 1 22 -64.0744 116.973
112 2.9111 2.77344 1 22.2 -58.5316 69.9217
113 2.71146 2.76162 1 22.4 -66.8166 135.193
114 2.51206 2.74624 1 22.6 -60.8956 -35.4396
115 2.31309 2.7261 1 22.8 -65.5764 168.042
116 2.11522 2.69719 1 23 -77.1747 100.865
117 1.92099 2.65011 1 23.2 -70.9601 84.0776
118 1.73261 2.5831 1 23.4 -66.9822 -20.951
119 1.54519 2.51501 1 23.6 -68.5705 30.7452
120 1.43235 2.35628 1 23.8 -83.0772 81.8064
121 1.40004 2.15924 1 24 -68.3866 51.5713
122 1.39511 1.95939 1 24.2 -79.7662 -116.355
123 1.40989 1.76003 1 24.4 -70.1531 -64.1846
124 1.44647 1.56349 1 24.6 -66.6392 44.6802
125 1.50314 1.37181 1 24.8 -65.2684 -62.2499
126 1.58778 1.19097 1 25 -64.3334 59.6001
127 1.72355 1.04659 1 25.2 -58.9158 13.0194
128 1.90939 0.975552 1 25.4 -65.2041 128.219
129 2.10655 0.942243 1 25.6 -56.8916 76.7988
130 2.30446 0.913701 1 25.8 -53.275 -42.0808
131 2.50385 0.898474 1 26 -54.1448 -167.626
132 2.70369 0.890706 1 26.2 -55.9756 109.452
133 2.90365 0.886827 1 26.4 -55.8813 26.7847
134 3.10361 0.88904 1 26.6 -56.0653 -57.1259
135 3.30328 0.900211 1 26.8 -59.0403 -144.229
136 3.50273 0.91506 1 27 -56.7394 97.2332
137 3.70173 0.934871 1 27.2 -53.2365 2.05598
138 3.90041 0.957768 1 27.4 -61.9398 -91.8185
