#Rx
# X(m), Y(m), Z(m), Distance(m), Power (dBm) Phase (deg)
1 0.609402 6.15212 1 0 -68.0326 -44.3957
2 0.800379 6.21151 1 0.2 -67.8994 -129.461
3 0.991404 6.27073 1 0.4 -68.1178 8.43261
4 1.18335 6.32688 1 0.6 -73.0432 -62.6598
5 1.3769 6.37726 1 0.8 -70.0555 73.0661
6 1.57092 6.42576 1 1 -64.3706 -42.2809
7 1.76398 6.47792 1 1.2 -72.5944 -34.9765
8 1.95473 6.53799 1 1.4 -67.7415 169.699
9 2.14355 6.6039 1 1.6 -65.0096 -122.049
10 2.33173 6.67162 1 1.8 -67.7965 97.3491
11 2.52059 6.73742 1 2 -68.7224 69.2985
12 2.71009 6.80135 1 2.2 -63.8591 161.728
13 2.9001 6.86375 1 2.4 -70.5324 -100.112
14 3.0923 6.91896 1 2.6 -70.3939 -117.715
15 3.28767 6.96155 1 2.8 -78.4802 115.29
16 3.4848 6.99524 1 3 -66.9964 68.8695
17 3.68179 7.02977 1 3.2 -52.9767 -131.218
18 3.87771 7.06992 1 3.4 -56.3909 97.8919
19 4.07381 7.1092 1 3.6 -57.5515 -148.397
20 4.27164 7.13817 1 3.8 -54.099 -4.35533
21 4.47105 7.15325 1 4 -50.0345 -142.503
22 4.66907 7.16466 1 4.2 -50.1233 -38.0691
23 4.7136 7.16682 1 4.4 -58.4888 -38.2106
24 4.91318 7.17979 1 4.6 -51.5433 -126.157
25 5.11294 7.18937 1 4.8 -45.4653 81.4625
26 5.31283 7.18733 1 5 -48.0708 77.8958
27 5.51092 7.16037 1 5.2 -49.7259 -72.4575
28 5.709 7.13328 1 5.4 -54.4609 5.05626
29 5.90889 7.12956 1 5.6 -50.8666 -48.237
30 6.10886 7.12911 1 5.8 -46.9647 -37.9411
31 6.30737 7.10684 1 6 -53.5929 -157.076
32 6.49871 7.04926 1 6.2 -45.7367 0.125388
33 6.68433 6.97484 1 6.4 -56.6804 84.3599
34 6.87057 6.90203 1 6.6 -48.3293 79.7844
35 7.06118 6.84152 1 6.8 -56.1867 -3.16189
36 7.25318 6.78554 1 7 -49.7681 -36.1165
37 7.44777 6.73954 1 7.2 -59.7045 -166.473
38 7.64632 6.7183 1 7.4 -53.0974 -51.8816
39 7.84628 6.72168 1 7.6 -51.0573 -3.22693
40 8.04511 6.70352 1 7.8 -50.5278 48.8386
41 8.23969 6.65751 1 8 -55.6896 160.516
42 8.43288 6.60581 1 8.2 -55.7481 -114.369
43 8.62794 6.56172 1 8.4 -51.3216 55.0572
44 8.82376 6.52108 1 8.6 -50.264 70.2746
45 9.01866 6.47628 1 8.8 -47.9293 120.036
46 9.21023 6.41912 1 9 -52.9749 128.228
47 9.39558 6.34408 1 9.2 -67.0496 -89.7365
48 9.57815 6.26244 1 9.4 -50.8987 -42.639
49 9.76454 6.1902 1 9.6 -52.3979 -22.6768
50 9.95753 6.13798 1 9.8 -51.4475 -15.6265
51 10.152 6.09121 1 10 -53.3346 -82.6558
52 10.3434 6.0334 1 10.2 -56.2136 -130.433
53 10.5363 5.99216 1 10.4 -63.4762 130.381
54 10.7005 5.92367 1 10.6 -61.097 -132.856
55 10.8515 5.79264 1 10.8 -56.4136 -43.4396
56 10.988 5.64668 1 11 -60.4322 97.0671
57 11.0924 5.47678 1 11.2 -56.4152 -2.49699
58 11.1623 5.28951 1 11.4 -57.8531 -51.1619
59 11.2166 5.09705 1 11.6 -63.4793 -173.585
60 11.2662 4.9033 1 11.8 -69.2027 148.649
61 11.2985 4.70628 1 12 -58.819 -62.4086
62 11.3058 4.52798 1 12.2 -56.0043 -1.36132
63 11.3084 4.32799 1 12.4 -49.5073 7.1648
64 11.3161 4.12843 1 12.6 -48.407 94.9918
65 11.2684 3.93757 1 12.8 -47.4978 -155.74
66 11.222 3.74633 1 13 -47.9841 -99.2701
67 11.0842 3.62067 1 13.2 -48.6104 163.244
68 10.919 3.50947 1 13.4 -44.5734 -32.2951
69 10.7848 3.36129 1 13.6 -50.1496 -94.2368
70 10.6506 3.21319 1 13.8 -42.7168 -117.289
71 10.5011 3.08028 1 14 -44.184 -132.863
72 10.3759 2.92577 1 14.2 -44.1897 110.102
73 10.3495 2.72957 1 14.4 -47.7346 23.6563
74 10.3523 2.52988 1 14.6 -45.4312 -94.9095
75 10.2318 2.38088 1 14.8 -48.6599 74.3622
76 10.0575 2.29043 1 15 -60.924 -22.0306
77 9.86225 2.33134 1 15.2 -56.5612 134.599
78 9.67133 2.39086 1 15.4 -48.9684 49.4367
79 9.48105 2.45243 1 15.6 -49.6927 159.673
80 9.29013 2.51199 1 15.8 -47.9706 -0.687866
81 9.09748 2.56562 1 16 -64.7434 -173.043
82 8.90176 2.60655 1 16.2 -44.6419 -22.144
83 8.70397 2.6361 1 16.4 -57.8958 -178.065
84 8.50508 2.65705 1 16.6 -67.4519 -73.1896
85 8.30568 2.67232 1 16.8 -52.0285 -39.4506
86 8.10595 2.68204 1 17 -46.9724 72.4573
87 7.90601 2.67847 1 17.2 -54.1732 -171.017
88 7.70608 2.67393 1 17.4 -48.9802 169.025
89 7.50633 2.68297 1 17.6 -52.5193 -124.841
90 7.30711 2.70064 1 17.8 -50.6386 -116.013
91 7.10804 2.71976 1 18 -48.8411 -154.475
92 6.90869 2.73586 1 18.2 -77.5577 -81.1135
93 6.7093 2.75152 1 18.4 -50.5627 118.877
94 6.5098 2.76552 1 18.6 -52.9965 37.4969
95 6.31011 2.77668 1 18.8 -53.7653 -99.5692
96 6.11033 2.786 1 19 -50.8517 17.2679
97 5.91049 2.79383 1 19.2 -46.4787 55.9884
98 5.71058 2.79969 1 19.4 -47.2219 135.649
99 5.51061 2.80264 1 19.6 -45.5544 51.3946
100 5.31063 2.80064 1 19.8 -50.4385 71.8071
101 5.11071 2.79502 1 20 -49.5922 -71.8271
102 4.91079 2.78948 1 20.2 -50.7825 45.7105
103 4.71082 2.78652 1 20.4 -50.851 -179.418
104 4.51083 2.78453 1 20.6 -55.4867 -84.2785
105 4.31084 2.783 1 20.8 -54.2223 -138.124
106 4.11086 2.78179 1 21 -47.5339 -26.7013
107 3.91086 2.78084 1 21.2 -62.7043 -154.291
108 3.71087 2.78176 1 21.4 -50.7052 -62.4344
109 3.51088 2.78382 1 21.6 -52.4759 -144.761
110 3.31089 2.78466 1 21.8 -54.3544 106.646
111 3.11092 2.78175 1 22 -50.9344 73.4928
112 2.9111 2.77344 1 22.2 -48.6801 -4.48204
113 2.71146 2.76162 1 22.4 -48.4821 -171.262
114 2.51206 2.74624 1 22.6 -46.7979 64.7461
115 2.31309 2.7261 1 22.8 -67.1655 -133.458
116 2.11522 2.69719 1 23 -47.8699 67.3929
117 1.92099 2.65011 1 23.2 -49.431 9.28891
118 1.73261 2.5831 1 23.4 -45.2495 154.167
119 1.54519 2.51501 1 23.6 -57.9689 -57.0156
120 1.43235 2.35628 1 23.8 -51.7402 -157.996
121 1.40004 2.15924 1 24 -47.8435 24.8863
122 1.39511 1.95939 1 24.2 -54.8494 17.7478
123 1.40989 1.76003 1 24.4 -62.1093 173.928
124 1.44647 1.56349 1 24.6 -57.0414 -52.93
125 1.50314 1.37181 1 24.8 -51.5074 -166.664
126 1.58778 1.19097 1 25 -51.0978 96.1653
127 1.72355 1.04659 1 25.2 -48.3309 176.152
128 1.90939 0.975552 1 25.4 -51.7744 85.2492
129 2.10655 0.942243 1 25.6 -48.0952 77.2105
130 2.30446 0.913701 1 25.8 -52.7608 69.9522
131 2.50385 0.898474 1 26 -47.554 72.0957
132 2.70369 0.890706 1 26.2 -60.7496 89.4776
133 2.90365 0.886827 1 26.4 -46.6879 93.5036
134 3.10361 0.88904 1 26.6 -52.0765 52.7922
135 3.30328 0.900211 1 26.8 -53.0469 77.7294
136 3.50273 0.91506 1 27 -52.024 39.7083
137 3.70173 0.934871 1 27.2 -54.724 95.7415
138 3.90041 0.957768 1 27.4 -49.9796 10.6407
