#Rx
# X(m), Y(m), Z(m), Distance(m), Power (dBm) Phase (deg)
1 0.110705 4.12118 1 9.73699 -72.7201 -135.865
2 0.310705 4.12118 1 9.5587 -73.1704 45.8476
3 0.510705 4.12118 1 9.38128 -85.1469 -91.0385
4 0.710705 4.12118 1 9.20479 -76.0265 145.228
5 0.910705 4.12118 1 9.02927 -56.9861 20.7361
6 1.1107 4.12118 1 8.8548 -55.3867 161.121
7 1.3107 4.12118 1 8.68142 -55.54 -53.882
8 1.5107 4.12118 1 8.50922 -56.6205 59.2174
9 1.7107 4.12118 1 8.33825 -53.8693 -175.666
10 1.9107 4.12118 1 8.16861 -53.1701 -40.8003
11 0.110705 4.32118 1 9.81955 -74.2416 154.841
12 0.310705 4.32118 1 9.64278 -71.3645 6.53951
13 0.510705 4.32118 1 9.46694 -56.5958 -160.657
14 0.710705 4.32118 1 9.29207 -56.4145 -19.478
15 0.910705 4.32118 1 9.11824 -56.0606 112.616
16 1.1107 4.32118 1 8.9455 -54.94 -116.007
17 1.3107 4.32118 1 8.77392 -53.8249 16.4237
18 1.5107 4.32118 1 8.60357 -53.7903 143.34
19 1.7107 4.32118 1 8.43451 -53.5256 -94.1781
20 1.9107 4.32118 1 8.26684 -55.4758 31.0563
21 0.110705 4.52118 1 9.90546 -57.107 20.7807
22 0.310705 4.52118 1 9.73025 -56.8293 155.538
23 0.510705 4.52118 1 9.55602 -56.0677 -70.0061
24 0.710705 4.52118 1 9.38281 -55.1278 70.2278
25 0.910705 4.52118 1 9.21069 -54.2316 -157.641
26 1.1107 4.52118 1 9.03972 -54.8821 -26.7578
27 1.3107 4.52118 1 8.86996 -56.3856 94.0084
28 1.5107 4.52118 1 8.70149 -55.5568 -156.232
29 1.7107 4.52118 1 8.53438 -55.322 -45.7668
30 1.9107 4.52118 1 8.36871 -55.1651 65.5149
31 0.110705 4.72118 1 9.99463 -54.9885 112.912
32 0.310705 4.72118 1 9.82102 -56.051 -101.771
33 0.510705 4.72118 1 9.64842 -55.0201 21.8677
34 0.710705 4.72118 1 9.47691 -56.106 155.131
35 0.910705 4.72118 1 9.30653 -55.9325 -81.7671
36 1.1107 4.72118 1 9.13735 -55.7326 32.3736
37 1.3107 4.72118 1 8.96944 -55.8083 146.171
38 1.5107 4.72118 1 8.80287 -56.05 -95.8208
39 1.7107 4.72118 1 8.63772 -55.0918 2.6162
40 1.9107 4.72118 1 8.47407 -54.3926 98.363
41 0.110705 4.92118 1 10.087 -54.22 -149.064
42 0.310705 4.92118 1 9.91498 -57.0937 -15.0513
43 0.510705 4.92118 1 9.74405 -57.2194 88.5707
44 0.710705 4.92118 1 9.57425 -55.2986 -149.933
45 0.910705 4.92118 1 9.40563 -56.2445 -13.9192
46 1.1107 4.92118 1 9.23827 -56.7553 88.4612
47 1.3107 4.92118 1 9.07223 -58.0878 -164.288
48 1.5107 4.92118 1 8.90758 -55.3248 -64.239
49 1.7107 4.92118 1 8.74441 -54.473 58.5316
50 1.9107 4.92118 1 8.58279 -58.7788 162.131
51 0.110705 5.12118 1 10.1824 -55.7953 -87.8527
52 0.310705 5.12118 1 10.0121 -57.7926 41.3604
53 0.510705 5.12118 1 9.84282 -57.2829 146.143
54 0.710705 5.12118 1 9.67475 -54.2358 -87.8728
55 0.910705 5.12118 1 9.50792 -59.2651 35.7576
56 1.1107 5.12118 1 9.34239 -55.7335 135.42
57 1.3107 5.12118 1 9.17823 -54.7793 -105.086
58 1.5107 5.12118 1 9.01552 -59.3405 2.25976
59 1.7107 5.12118 1 8.85433 -60.6952 88.9696
60 1.9107 5.12118 1 8.69476 -58.1962 166.562
61 0.110705 5.32118 1 10.2809 -58.1552 -9.76991
62 0.310705 5.32118 1 10.1122 -58.7021 93.4406
63 0.510705 5.32118 1 9.94463 -56.4999 -162.223
64 0.710705 5.32118 1 9.77831 -54.1866 -28.5138
65 0.910705 5.32118 1 9.61328 -56.6284 82.5879
66 1.1107 5.32118 1 9.44959 -58.0951 175.327
67 1.3107 5.32118 1 9.28733 -57.9898 -61.8608
68 1.5107 5.32118 1 9.12656 -58.147 27.4527
69 1.7107 5.32118 1 8.96737 -59.9556 106.397
70 1.9107 5.32118 1 8.80985 -57.5824 -159.27
71 0.110705 5.52118 1 10.3822 -58.1177 25.3323
72 0.310705 5.52118 1 10.2152 -54.9229 135.549
73 0.510705 5.52118 1 10.0494 -55.501 -88.7365
74 0.710705 5.52118 1 9.88483 -57.3629 35.1497
75 0.910705 5.52118 1 9.72161 -61.1211 118.385
76 1.1107 5.52118 1 9.55978 -56.4575 -154.431
77 1.3107 5.52118 1 9.39941 -59.8172 -35.0868
78 1.5107 5.52118 1 9.2406 -58.4979 38.3014
79 1.7107 5.52118 1 9.08341 -55.6724 123.396
80 1.9107 5.52118 1 8.92794 -59.4317 -126.253
81 0.110705 5.72118 1 10.4864 -56.3246 97.392
82 0.310705 5.72118 1 10.3211 -57.0024 -156.044
83 0.510705 5.72118 1 10.157 -57.8411 -56.0155
84 0.710705 5.72118 1 9.99422 -59.7087 43.8147
85 0.910705 5.72118 1 9.83281 -58.0661 145.292
86 1.1107 5.72118 1 9.67284 -56.609 -117.853
87 1.3107 5.72118 1 9.51439 -61.7149 -29.5416
88 1.5107 5.72118 1 9.35752 -59.1242 60.4575
89 1.7107 5.72118 1 9.20233 -57.9627 156.223
90 1.9107 5.72118 1 9.0489 -57.6798 167.548
91 0.110705 5.92118 1 10.5934 -60.0402 138.372
92 0.310705 5.92118 1 10.4298 -57.2535 -131.272
93 0.510705 5.92118 1 10.2674 -58.2466 -20.6891
94 0.710705 5.92118 1 10.1064 -60.219 64.82
95 0.910705 5.92118 1 9.9468 -58.0199 175.851
96 1.1107 5.92118 1 9.78869 -58.883 -87.3554
97 1.3107 5.92118 1 9.63214 -60.1174 -24.1723
98 1.5107 5.92118 1 9.47722 -60.856 67.1674
99 1.7107 5.92118 1 9.32403 -57.4202 125.906
100 1.9107 5.92118 1 9.17263 -53.8772 -164.731
101 0.110705 6.12118 1 10.703 -60.679 166.359
102 0.310705 6.12118 1 10.5411 -58.6834 -97.5495
103 0.510705 6.12118 1 10.3805 -57.8767 11.0331
104 0.710705 6.12118 1 10.2212 -58.8265 92.465
105 0.910705 6.12118 1 10.0635 -59.4909 -170.213
106 1.1107 6.12118 1 9.90722 -63.2326 -88.2855
107 1.3107 6.12118 1 9.75257 -58.0661 -9.66885
108 1.5107 6.12118 1 9.5996 -55.861 44.3081
109 1.7107 6.12118 1 9.44839 -57.3505 139.753
110 1.9107 6.12118 1 9.29902 -55.7474 -137.538
111 0.110705 6.32118 1 10.8152 -60.2773 -169.278
112 0.310705 6.32118 1 10.655 -58.6507 -71.2354
113 0.510705 6.32118 1 10.4961 -59.7325 45.8792
114 0.710705 6.32118 1 10.3387 -60.3909 103.415
115 0.910705 6.32118 1 10.1827 -60.1158 -161.78
116 1.1107 6.32118 1 10.0283 -57.0361 -122.068
117 1.3107 6.32118 1 9.87559 -56.1765 -12.9435
118 1.5107 6.32118 1 9.72455 -56.612 60.8635
119 1.7107 6.32118 1 9.57531 -57.8098 132.169
120 1.9107 6.32118 1 9.42795 -59.689 -129.142
121 0.110705 6.52118 1 10.9299 -59.6608 -135.901
122 0.310705 6.52118 1 10.7714 -60.562 -55.9722
123 0.510705 6.52118 1 10.6143 -62.8388 42.7182
124 0.710705 6.52118 1 10.4586 -58.9911 117.425
125 0.910705 6.52118 1 10.3045 -56.564 178.051
126 1.1107 6.52118 1 10.1519 -55.9665 -99.2605
127 1.3107 6.52118 1 10.0011 -57.7373 -9.78511
128 1.5107 6.52118 1 9.85198 -58.3115 60.0261
129 1.7107 6.52118 1 9.7047 -57.1458 143.111
130 1.9107 6.52118 1 9.55933 -60.1406 -158.33
131 0.110705 6.72118 1 11.0471 -62.4424 -122.736
132 0.310705 6.72118 1 10.8903 -58.9218 -45.2361
133 0.510705 6.72118 1 10.7349 -61.1755 40.6575
134 0.710705 6.72118 1 10.581 -55.9547 99.8082
135 0.910705 6.72118 1 10.4287 -57.7287 -163.161
136 1.1107 6.72118 1 10.278 -56.7103 -93.009
137 1.3107 6.72118 1 10.129 -59.6054 -14.0348
138 1.5107 6.72118 1 9.98178 -58.7478 58.9949
139 1.7107 6.72118 1 9.83645 -60.1633 149.771
140 1.9107 6.72118 1 9.69306 -59.4662 -177.363
141 0.110705 6.92118 1 11.1666 -61.2077 -116.949
142 0.310705 6.92118 1 11.0115 -58.2612 -37.7078
143 0.510705 6.92118 1 10.8578 -56.769 21.9405
144 0.710705 6.92118 1 10.7057 -57.8616 112.387
145 0.910705 6.92118 1 10.5552 -59.6256 -166.372
146 1.1107 6.92118 1 10.4063 -56.9267 -88.7638
147 1.3107 6.92118 1 10.2592 -59.7878 -20.5608
148 1.5107 6.92118 1 10.1139 -60.0499 52.1642
149 1.7107 6.92118 1 9.97047 -65.4418 104.612
150 1.9107 6.92118 1 9.82903 -63.1479 -179.479
151 0.110705 7.12118 1 11.2884 -57.2046 -135.807
152 0.310705 7.12118 1 11.1349 -55.853 -46.9234
153 0.510705 7.12118 1 10.983 -58.9525 30.8226
154 0.710705 7.12118 1 10.8327 -57.0563 114.2
155 0.910705 7.12118 1 10.6839 -59.159 -170.072
156 1.1107 7.12118 1 10.5369 -58.4038 -80.9808
157 1.3107 7.12118 1 10.3916 -60.6648 -28.8658
158 1.5107 7.12118 1 10.2482 -61.005 27.4195
159 1.7107 7.12118 1 10.1067 -67.1298 52.189
160 1.9107 7.12118 1 9.96717 -73.6444 150.8
161 0.110705 7.32118 1 11.4124 -59.2371 -127.264
162 0.310705 7.32118 1 11.2606 -58.043 -43.1676
163 0.510705 7.32118 1 11.1104 -58.2369 33.9147
164 0.710705 7.32118 1 10.9618 -58.0202 116.186
165 0.910705 7.32118 1 10.8148 -61.7802 177.64
166 1.1107 7.32118 1 10.6696 -61.5555 -105.066
167 1.3107 7.32118 1 10.5262 -61.3952 -53.2944
168 1.5107 7.32118 1 10.3846 -67.1386 6.96924
169 1.7107 7.32118 1 10.245 -68.7788 11.4055
170 1.9107 7.32118 1 10.1074 -81.3721 111.32
171 0.110705 7.52118 1 11.5385 -58.8736 -118.309
172 0.310705 7.52118 1 11.3884 -57.8281 -38.9546
173 0.510705 7.52118 1 11.2399 -59.9523 42.3126
174 0.710705 7.52118 1 11.093 -59.4944 105.643
175 0.910705 7.52118 1 10.9478 -60.3681 161.092
176 1.1107 7.52118 1 10.8044 -64.2116 -121.16
177 1.3107 7.52118 1 10.6628 -64.1957 -85.9139
178 1.5107 7.52118 1 10.523 -73.7964 -92.5221
179 1.7107 7.52118 1 10.3853 -75.8772 3.85278
180 1.9107 7.52118 1 10.2496 -63.6974 -29.1947
181 0.110705 7.72118 1 11.6667 -60.1587 -109.832
182 0.310705 7.72118 1 11.5183 -59.7758 -54.9149
183 0.510705 7.72118 1 11.3715 -62.1382 18.7872
184 0.710705 7.72118 1 11.2263 -61.0257 100.193
185 0.910705 7.72118 1 11.0829 -62.513 134.824
186 1.1107 7.72118 1 10.9412 -65.7301 174.185
187 1.3107 7.72118 1 10.8013 -75.175 -102.082
188 1.5107 7.72118 1 10.6634 -84.1644 -97.3125
189 1.7107 7.72118 1 10.5275 -66.8847 -96.6625
190 1.9107 7.72118 1 10.3937 -65.4882 -84.7684
