#Rx
# X(m), Y(m), Z(m), Distance(m), Power (dBm) Phase (deg)
1 9.42507 3.65205 1 0 -45.6845 175.764
2 9.62507 3.6517 1 0.2 -47.1166 94.436
3 9.82507 3.65136 1 0.4 -43.7924 -82.5094
4 10.0251 3.65102 1 0.6 -52.8137 7.1482
5 10.2251 3.65067 1 0.8 -60.8798 137.649
6 10.4251 3.65033 1 1 -52.0764 -88.9495
7 10.6251 3.64998 1 1.2 -47.5143 109.502
8 10.8251 3.64964 1 1.4 -47.8289 -106.026
9 11.0251 3.6493 1 1.6 -45.5869 -160.868
10 11.2251 3.64895 1 1.8 -45.1958 -54.8888
11 11.4251 3.64861 1 2 -45.1486 25.7655
12 11.6251 3.64826 1 2.2 -47.305 91.9159
13 9.42472 3.45205 1 4.40907 -49.8527 79.892
14 9.62472 3.4517 1 4.60907 -45.6616 -16.1219
15 9.82472 3.45136 1 4.80907 -48.3358 38.3293
16 10.0247 3.45102 1 5.00907 -58.041 -164.253
17 10.2247 3.45067 1 5.20907 -59.5523 -25.1592
18 10.4247 3.45033 1 5.40907 -49.5244 152.328
19 10.6247 3.44998 1 5.60907 -43.1396 -37.7824
20 10.8247 3.44964 1 5.80907 -43.5586 97.5326
21 11.0247 3.4493 1 6.00907 -43.4196 31.6211
22 11.2247 3.44895 1 6.20907 -42.1109 128.401
23 11.4247 3.44861 1 6.40907 -45.1157 -151.751
24 11.6247 3.44826 1 6.60907 -48.3131 -109.663
25 9.42438 3.25205 1 8.81814 -46.9298 -29.3308
26 9.62438 3.2517 1 9.01814 -43.2174 148.047
27 9.82438 3.25136 1 9.21814 -50.3428 -84.8061
28 10.0244 3.25102 1 9.41814 -63.9367 140.848
29 10.2244 3.25067 1 9.61814 -55.4789 -161.825
30 10.4244 3.25033 1 9.81814 -48.1796 -4.89358
31 10.6244 3.24998 1 10.0181 -45.8894 177.536
32 10.8244 3.24964 1 10.2181 -54.1948 -14.6308
33 11.0244 3.2493 1 10.4181 -44.0255 -125.556
34 11.2244 3.24895 1 10.6181 -42.342 -29.3977
35 11.4244 3.24861 1 10.8181 -45.7102 46.9681
36 11.6244 3.24826 1 11.0181 -47.7895 89.0182
37 9.42404 3.05205 1 13.2272 -47.219 -163.399
38 9.62404 3.05171 1 13.4272 -50.9966 -72.8895
39 9.82404 3.05136 1 13.6272 -55.2534 114.853
40 10.024 3.05102 1 13.8272 -62.86 166.705
41 10.224 3.05067 1 14.0272 -53.6006 15.5563
42 10.424 3.05033 1 14.2272 -48.9275 -160.171
43 10.624 3.04998 1 14.4272 -47.2393 18.9209
44 10.824 3.04964 1 14.6272 -48.105 -63.9963
45 9.42369 2.85205 1 16.0414 -43.5317 8.01057
46 9.62369 2.85171 1 16.2414 -49.8712 143.485
47 9.82369 2.85136 1 16.4414 -61.3208 -32.569
48 10.0237 2.85102 1 16.6414 -58.2054 53.2189
49 10.2237 2.85067 1 16.8414 -48.3183 -133.088
50 10.4237 2.85033 1 17.0414 -47.0189 26.872
51 10.6237 2.84999 1 17.2414 -49.3972 177.292
52 10.8237 2.84964 1 17.4414 -46.3117 131.486
53 9.42335 2.65205 1 18.8556 -49.8112 135.734
54 9.62335 2.65171 1 19.0556 -52.3044 -19.1779
55 9.82335 2.65136 1 19.2556 -57.1368 107.102
56 10.0233 2.65102 1 19.4556 -52.7463 -98.4114
57 10.2233 2.65067 1 19.6556 -48.5431 70.3622
58 10.4233 2.65033 1 19.8556 -47.917 -126.907
59 10.6233 2.64999 1 20.0556 -51.6686 80.8546
60 10.8233 2.64964 1 20.2556 -48.4684 -36.2347
61 9.423 2.45205 1 21.6699 -51.8845 -21.7716
62 9.623 2.45171 1 21.8699 -58.6517 163.466
63 9.823 2.45136 1 22.0699 -58.0232 -45.9615
64 10.023 2.45102 1 22.2699 -51.0221 115.73
65 10.223 2.45067 1 22.4699 -47.8337 -80.8899
66 10.423 2.45033 1 22.6699 -45.9891 65.236
67 10.623 2.44999 1 22.8699 -57.3136 -86.8816
68 10.823 2.44964 1 23.0699 -52.602 162.782
69 9.42266 2.25205 1 24.4841 -54.3383 -171.854
70 9.62266 2.25171 1 24.6841 -60.2062 -23.4936
71 9.82266 2.25136 1 24.8841 -51.7732 138.139
72 10.0227 2.25102 1 25.0841 -48.2464 -59.8781
73 10.2227 2.25067 1 25.2841 -49.8362 94.1805
74 10.4227 2.25033 1 25.4841 -47.8553 -94.354
75 10.6227 2.24999 1 25.6841 -47.5797 -130.826
76 10.8227 2.24964 1 25.8841 -55.5367 -25.7803
77 9.42232 2.05205 1 27.2983 -57.2813 -20.7722
78 9.62232 2.05171 1 27.4983 -56.7265 99.6859
79 9.82232 2.05136 1 27.6983 -51.9805 -38.063
80 10.0223 2.05102 1 27.8983 -49.6918 141.389
81 10.2223 2.05067 1 28.0983 -48.2891 -64.2701
82 10.4223 2.05033 1 28.2983 -51.4567 -157.548
83 10.6223 2.04999 1 28.4983 -52.567 29.3152
84 10.8223 2.04964 1 28.6983 -56.3983 152.882
85 9.42197 1.85205 1 30.1125 -65.9396 174.273
86 9.62197 1.85171 1 30.3125 -62.2606 -41.38
87 9.82197 1.85136 1 30.5125 -49.6967 165.082
88 10.022 1.85102 1 30.7125 -48.7289 -37.6568
89 10.222 1.85067 1 30.9125 -49.6783 125.384
90 10.422 1.85033 1 31.1125 -54.6484 26.7828
91 10.622 1.84999 1 31.3125 -52.7407 -151.601
92 10.822 1.84964 1 31.5125 -58.416 -39.8717
93 9.42163 1.65205 1 32.9267 -57.3651 -36.9285
94 9.62163 1.65171 1 33.1267 -52.5599 147.828
95 9.82163 1.65136 1 33.3267 -53.1206 -11.3823
96 10.0216 1.65102 1 33.5267 -49.9308 158.824
97 10.2216 1.65067 1 33.7267 -51.6339 -36.4729
98 10.4216 1.65033 1 33.9267 -59.4794 -148.672
99 10.6216 1.64999 1 34.1267 -57.7685 12.2399
100 10.8216 1.64964 1 34.3267 -61.7188 110.357
101 11.0216 1.6493 1 34.5267 -70.9022 -137.25
102 11.2216 1.64895 1 34.7267 -68.6399 -163.882
103 11.4216 1.64861 1 34.9267 -71.2044 128.455
104 11.6216 1.64827 1 35.1267 -77.8276 63.6784
105 9.42128 1.45205 1 37.3358 -57.8086 148.656
106 9.62128 1.45171 1 37.5358 -54.2028 -3.69079
107 9.82128 1.45136 1 37.7358 -52.4152 -179.825
108 10.0213 1.45102 1 37.9358 -48.0594 -2.37307
109 10.2213 1.45068 1 38.1358 -50.266 141.939
110 10.4213 1.45033 1 38.3358 -69.1313 167.333
111 10.6213 1.44999 1 38.5358 -58.6681 -163.517
112 10.8213 1.44964 1 38.7358 -62.9739 -137.294
113 11.0213 1.4493 1 38.9358 -90.5854 -157.788
114 11.2213 1.44895 1 39.1358 -72.0521 -12.8862
115 11.4213 1.44861 1 39.3358 -66.6474 -58.0141
116 11.6213 1.44827 1 39.5358 -74.297 -178.833
117 9.42094 1.25205 1 41.7449 -62.1481 36.479
118 9.62094 1.25171 1 41.9449 -52.1371 -167.563
119 9.82094 1.25136 1 42.1449 -51.3878 15.2432
120 10.0209 1.25102 1 42.3449 -48.9596 -179.606
121 10.2209 1.25068 1 42.5449 -55.0896 98.0841
122 10.4209 1.25033 1 42.7449 -48.4289 -73.78
123 10.6209 1.24999 1 42.9449 -55.5107 14.3233
124 10.8209 1.24964 1 43.1449 -82.0581 3.45141
125 11.0209 1.2493 1 43.3449 -70.0766 150.287
126 11.2209 1.24896 1 43.5449 -79.3703 -81.5679
127 11.4209 1.24861 1 43.7449 -70.7706 117.381
128 11.6209 1.24827 1 43.9449 -69.4417 -3.22026
129 9.4206 1.05205 1 46.1539 -59.6374 33.5133
130 9.6206 1.05171 1 46.3539 -56.3808 23.3905
131 9.82059 1.05136 1 46.5539 -54.4867 -119.515
132 10.0206 1.05102 1 46.7539 -49.2342 25.5675
133 10.2206 1.05068 1 46.9539 -56.0427 -149.641
134 10.4206 1.05033 1 47.1539 -53.3988 99.6483
135 10.6206 1.04999 1 47.3539 -59.3048 -174.21
136 10.8206 1.04964 1 47.5539 -70.0144 -66.6305
137 11.0206 1.0493 1 47.7539 -70.722 155.616
138 11.2206 1.04896 1 47.9539 -72.377 21.5483
139 11.4206 1.04861 1 48.1539 -66.5721 -51.9807
140 11.6206 1.04827 1 48.3539 -65.6594 152.307
141 9.42025 0.852052 1 50.563 -54.3195 119.024
142 9.62025 0.851708 1 50.763 -55.8624 -101.102
143 9.82025 0.851364 1 50.963 -52.0358 60.6404
144 10.0203 0.85102 1 51.163 -51.3414 -166.694
145 10.2203 0.850676 1 51.363 -65.0316 41.9341
146 10.4202 0.850332 1 51.563 -55.165 -74.9449
147 10.6202 0.849988 1 51.763 -60.7703 -4.64121
148 10.8202 0.849644 1 51.963 -75.8396 126.502
149 11.0202 0.8493 1 52.163 -76.6071 70.0015
150 11.2202 0.848956 1 52.363 -70.4514 148.729
151 11.4202 0.848612 1 52.563 -70.3461 -10.7673
152 11.6202 0.848268 1 52.763 -70.8813 -59.649
153 9.41991 0.652053 1 54.9721 -57.7418 -93.7885
154 9.61991 0.651709 1 55.1721 -58.4978 156.22
155 9.81991 0.651365 1 55.3721 -57.183 -109.491
156 10.0199 0.65102 1 55.5721 -51.3381 109.858
157 10.2199 0.650676 1 55.7721 -70.148 -177.91
158 10.4199 0.650332 1 55.9721 -54.0972 92.4163
159 10.6199 0.649988 1 56.1721 -65.3236 166.273
160 10.8199 0.649644 1 56.3721 -73.2399 -130.939
161 11.0199 0.6493 1 56.5721 -77.6435 -64.1568
162 11.2199 0.648956 1 56.7721 -77.9661 -71.6095
163 11.4199 0.648612 1 56.9721 -69.1836 -143.874
164 11.6199 0.648268 1 57.1721 -75.6995 109.627
165 9.41956 0.452053 1 59.3811 -57.7935 93.5524
166 9.61956 0.451709 1 59.5811 -54.038 -90.0763
167 9.81956 0.451365 1 59.7811 -58.4994 85.7509
168 10.0196 0.451021 1 59.9811 -56.7688 -96.1064
169 10.2196 0.450677 1 60.1811 -73.3714 -15.1343
170 10.4196 0.450333 1 60.3811 -59.1412 -131.803
171 10.6196 0.449988 1 60.5811 -70.0556 -100.543
172 10.8196 0.449644 1 60.7811 -74.7865 92.0804
173 11.0196 0.4493 1 60.9811 -70.3144 106.371
174 11.2196 0.448956 1 61.1811 -76.7132 -23.5828
175 11.4196 0.448612 1 61.3811 -73.4941 42.7157
176 11.6196 0.448268 1 61.5811 -80.6638 -84.8805
177 9.41922 0.252053 1 63.7902 -64.6202 -29.5346
178 9.61922 0.251709 1 63.9902 -53.03 111.58
179 9.81922 0.251365 1 64.1902 -60.6307 -138.956
180 10.0192 0.251021 1 64.3902 -59.5326 56.5034
181 10.2192 0.250677 1 64.5902 -49.8916 -50.0459
182 10.4192 0.250333 1 64.7902 -58.2611 29.9585
183 10.6192 0.249989 1 64.9902 -64.9125 96.1076
184 10.8192 0.249645 1 65.1902 -79.3238 114.563
185 11.0192 0.249301 1 65.3902 -74.88 -93.8608
186 11.2192 0.248957 1 65.5902 -77.4713 -162.456
187 11.4192 0.248613 1 65.7902 -75.6292 -151.876
188 11.6192 0.248269 1 65.9902 -71.4311 117.154
