#Rx
# X(m), Y(m), Z(m), Distance(m), Power (dBm) Phase (deg)
1 0.110705 4.12118 1 7.9542 -53.7814 124.232
2 0.310705 4.12118 1 7.78444 -51.4936 -73.237
3 0.510705 4.12118 1 7.61614 -50.9496 111.03
4 0.710705 4.12118 1 7.44942 -64.671 -99.5413
5 0.910705 4.12118 1 7.28437 -57.7015 -111.915
6 1.1107 4.12118 1 7.12111 -49.2268 35.7515
7 1.3107 4.12118 1 6.95976 -51.0417 -175.448
8 1.5107 4.12118 1 6.80048 -59.2991 164.461
9 1.7107 4.12118 1 6.64339 -50.8917 -53.151
10 1.9107 4.12118 1 6.48867 -45.1314 49.7942
11 0.110705 4.32118 1 7.86188 -54.9645 -29.2021
12 0.310705 4.32118 1 7.69008 -52.8864 108.889
13 0.510705 4.32118 1 7.51967 -55.6064 -94.2547
14 0.710705 4.32118 1 7.35076 -60.6185 52.3469
15 0.910705 4.32118 1 7.18344 -64.9151 39.9257
16 1.1107 4.32118 1 7.01783 -56.5241 -149.227
17 1.3107 4.32118 1 6.85406 -51.7907 44.2853
18 1.5107 4.32118 1 6.69225 -52.3051 -162.057
19 1.7107 4.32118 1 6.53257 -51.8699 -43.6782
20 1.9107 4.32118 1 6.37515 -54.8921 -14.9473
21 0.110705 4.52118 1 7.7736 -64.0075 -90.7262
22 0.310705 4.52118 1 7.59981 -54.5527 110.419
23 0.510705 4.52118 1 7.42733 -55.2592 -121.641
24 0.710705 4.52118 1 7.25627 -54.5154 0.330684
25 0.910705 4.52118 1 7.08672 -57.204 88.0767
26 1.1107 4.52118 1 6.91879 -53.8029 -128.933
27 1.3107 4.52118 1 6.75262 -62.5119 -1.79129
28 1.5107 4.52118 1 6.58833 -57.4887 14.7056
29 1.7107 4.52118 1 6.42606 -52.3306 -178.839
30 1.9107 4.52118 1 6.26597 -49.9489 -38.6412
31 0.110705 4.72118 1 7.68952 -47.6755 61.2297
32 0.310705 4.72118 1 7.51378 -50.8061 -132.088
33 0.510705 4.72118 1 7.33928 -54.9129 -25.8881
34 0.710705 4.72118 1 7.16611 -58.3304 -1.75053
35 0.910705 4.72118 1 6.99438 -64.1577 68.6821
36 1.1107 4.72118 1 6.82419 -56.6576 174.046
37 1.3107 4.72118 1 6.65565 -48.658 -116.436
38 1.5107 4.72118 1 6.4889 -50.3759 44.3965
39 1.7107 4.72118 1 6.32408 -61.117 166.03
40 1.9107 4.72118 1 6.16134 -68.3727 -118.05
41 0.110705 4.92118 1 7.60976 -51.2945 -147.639
42 0.310705 4.92118 1 7.43214 -54.676 66.2004
43 0.510705 4.92118 1 7.25567 -53.4505 -109.477
44 0.710705 4.92118 1 7.08046 -52.2051 19.7492
45 0.910705 4.92118 1 6.9066 -55.3136 138.148
46 1.1107 4.92118 1 6.73419 -57.0356 -174.056
47 1.3107 4.92118 1 6.56334 -62.5794 -174.107
48 1.5107 4.92118 1 6.39419 -54.9933 -29.0166
49 1.7107 4.92118 1 6.22686 -52.3907 38.3662
50 1.9107 4.92118 1 6.06151 -53.2999 -165.344
51 0.110705 5.12118 1 7.53447 -56.0487 140.645
52 0.310705 5.12118 1 7.35503 -55.4382 -116.35
53 0.510705 5.12118 1 7.17667 -58.2785 -2.04805
54 0.710705 5.12118 1 6.99948 -61.5716 -166.02
55 0.910705 5.12118 1 6.82356 -55.9485 46.7147
56 1.1107 5.12118 1 6.64899 -50.3223 177.526
57 1.3107 5.12118 1 6.4759 -54.7051 -48.9521
58 1.5107 5.12118 1 6.3044 -68.0937 -124.083
59 1.7107 5.12118 1 6.13462 -61.8141 42.906
60 1.9107 5.12118 1 5.96672 -63.2207 80.4664
61 0.110705 5.32118 1 7.46378 -54.4349 -1.43676
62 0.310705 5.32118 1 7.2826 -52.3599 171.473
63 0.510705 5.32118 1 7.10242 -52.0278 -11.5179
64 0.710705 5.32118 1 6.92333 -58.644 70.0127
65 0.910705 5.32118 1 6.74542 -73.4976 -172.689
66 1.1107 5.32118 1 6.56878 -60.2604 55.9736
67 1.3107 5.32118 1 6.39352 -54.4943 -175.802
68 1.5107 5.32118 1 6.21974 -49.4221 -30.7187
69 1.7107 5.32118 1 6.04759 -64.8161 103.48
70 1.9107 5.32118 1 5.8772 -59.8038 1.92369
71 0.110705 5.52118 1 7.39783 -50.1949 162.443
72 0.310705 5.52118 1 7.21499 -47.82 -52.6893
73 0.510705 5.52118 1 7.03308 -52.5084 171.615
74 0.710705 5.52118 1 6.85218 -49.7721 -28.7507
75 0.910705 5.52118 1 6.67237 -51.6769 139.524
76 1.1107 5.52118 1 6.49374 -65.925 -84.5683
77 1.3107 5.52118 1 6.31639 -58.8332 80.4029
78 1.5107 5.52118 1 6.14044 -58.8573 -146.4
79 1.7107 5.52118 1 5.966 -55.1148 -36.457
80 1.9107 5.52118 1 5.79321 -61.5049 167.035
81 0.110705 5.72118 1 7.33673 -54.8893 -3.52664
82 0.310705 5.72118 1 7.15233 -52.7568 170.182
83 0.510705 5.72118 1 6.96878 -51.4094 -12.0713
84 0.710705 5.72118 1 6.78617 -50.3505 134.329
85 0.910705 5.72118 1 6.60457 -48.7592 -34.407
86 1.1107 5.72118 1 6.42405 -49.8824 110.985
87 1.3107 5.72118 1 6.24473 -49.7282 -86.4139
88 1.5107 5.72118 1 6.06669 -54.1988 82.4868
89 1.7107 5.72118 1 5.89007 -59.6515 -142.98
90 1.9107 5.72118 1 5.71499 -63.0484 -34.3212
91 0.110705 5.92118 1 7.28062 -46.8344 171.055
92 0.310705 5.92118 1 7.09476 -48.4086 -23.0843
93 0.510705 5.92118 1 6.90969 -48.0528 -176.681
94 0.710705 5.92118 1 6.72547 -48.9712 -12.5796
95 0.910705 5.92118 1 6.54218 -50.0795 142.961
96 1.1107 5.92118 1 6.35989 -52.0175 -60.5999
97 1.3107 5.92118 1 6.17871 -47.1059 101.294
98 1.5107 5.92118 1 5.99871 -49.2501 -103.576
99 1.7107 5.92118 1 5.82003 -50.4143 61.327
100 1.9107 5.92118 1 5.64277 -52.3892 -129.924
101 0.110705 6.12118 1 7.22961 -49.5324 -29.9475
102 0.310705 6.12118 1 7.0424 -48.9507 143.51
103 0.510705 6.12118 1 6.85591 -47.5253 -31.4009
104 0.710705 6.12118 1 6.67021 -46.8917 156.489
105 0.910705 6.12118 1 6.48536 -46.6364 -35.93
106 1.1107 6.12118 1 6.30143 -44.8478 128.316
107 1.3107 6.12118 1 6.11851 -45.7732 -60.9983
108 1.5107 6.12118 1 5.9367 -47.5487 110.373
109 1.7107 6.12118 1 5.75609 -49.0308 -129.028
110 1.9107 6.12118 1 5.5768 -48.1064 53.0862
111 0.110705 6.32118 1 7.1838 -46.7996 118.621
112 0.310705 6.32118 1 6.99537 -47.787 -72.875
113 0.510705 6.32118 1 6.80759 -46.877 145.414
114 0.710705 6.32118 1 6.62054 -47.2632 -45.7223
115 0.910705 6.32118 1 6.43426 -48.1102 121.8
116 1.1107 6.32118 1 6.24883 -45.5762 -70.7637
117 1.3107 6.32118 1 6.06432 -46.2343 96.539
118 1.5107 6.32118 1 5.88083 -46.1348 -100.8
119 1.7107 6.32118 1 5.69845 -46.2388 69.574
120 1.9107 6.32118 1 5.51729 -45.297 -125.062
121 0.110705 6.52118 1 7.1433 -46.7125 -120.884
122 0.310705 6.52118 1 6.95377 -46.047 70.0651
123 0.510705 6.52118 1 6.76484 -44.6101 -80.6173
124 0.710705 6.52118 1 6.57657 -46.5324 93.499
125 0.910705 6.52118 1 6.38901 -45.6395 -86.9578
126 1.1107 6.52118 1 6.20223 -47.148 74.05
127 1.3107 6.52118 1 6.01629 -47.3869 -118.374
128 1.5107 6.52118 1 5.83129 -46.742 45.1588
129 1.7107 6.52118 1 5.64731 -45.1227 -134.099
130 1.9107 6.52118 1 5.46445 -44.5811 27.6381
131 0.110705 6.72118 1 7.10821 -47.2826 -20.8761
132 0.310705 6.72118 1 6.91771 -49.2664 157.354
133 0.510705 6.72118 1 6.72777 -49.2231 16.5243
134 0.710705 6.72118 1 6.53843 -49.6181 -155.378
135 0.910705 6.72118 1 6.34974 -48.8632 37.99
136 1.1107 6.72118 1 6.16177 -49.1873 -140.446
137 1.3107 6.72118 1 5.97458 -49.0244 24.6621
138 1.5107 6.72118 1 5.78824 -49.1608 -160.464
139 1.7107 6.72118 1 5.60285 -49.8663 15.1445
140 1.9107 6.72118 1 5.41849 -50.015 -165.365
141 0.110705 6.92118 1 7.07859 -48.6957 54.8038
142 0.310705 6.92118 1 6.88727 -48.7835 -116.862
143 0.510705 6.92118 1 6.69647 -46.9858 91.1314
144 0.710705 6.92118 1 6.50622 -51.75 -80.7685
145 0.910705 6.92118 1 6.31657 -52.5825 106.141
146 1.1107 6.92118 1 6.12758 -50.5269 -41.0348
147 1.3107 6.92118 1 5.93931 -48.7035 154.059
148 1.5107 6.92118 1 5.75183 -46.6194 -18.3542
149 1.7107 6.92118 1 5.56522 -48.4384 145.388
150 1.9107 6.92118 1 5.37958 -48.6072 -35.8769
151 0.110705 7.12118 1 7.05451 -47.6325 113.625
152 0.310705 7.12118 1 6.86253 -50.1901 -59.8336
153 0.510705 7.12118 1 6.67102 -50.4402 142.471
154 0.710705 7.12118 1 6.48002 -53.6356 -22.3683
155 0.910705 7.12118 1 6.28958 -51.7448 -167.133
156 1.1107 7.12118 1 6.09975 -47.6226 61.4678
157 1.3107 7.12118 1 5.9106 -47.1948 -112.098
158 1.5107 7.12118 1 5.72218 -46.9901 68.64
159 1.7107 7.12118 1 5.53457 -48.1374 -110.785
160 1.9107 7.12118 1 5.34786 -48.3268 58.1759
161 0.110705 7.32118 1 7.03605 -53.4742 169.386
162 0.310705 7.32118 1 6.84355 -52.3906 -14.2415
163 0.510705 7.32118 1 6.65149 -51.6311 -175.329
164 0.710705 7.32118 1 6.45991 -53.753 24.704
165 0.910705 7.32118 1 6.26886 -54.1599 -144.873
166 1.1107 7.32118 1 6.07838 -58.5876 49.8449
167 1.3107 7.32118 1 5.88854 -52.7966 -96.6781
168 1.5107 7.32118 1 5.69939 -49.974 120.5
169 1.7107 7.32118 1 5.51101 -49.974 -62.8316
170 1.9107 7.32118 1 5.32348 -48.0172 117.61
171 0.110705 7.52118 1 7.02323 -50.7743 -112.213
172 0.310705 7.52118 1 6.83037 -51.1827 78.8648
173 0.510705 7.52118 1 6.63793 -54.8562 -89.7328
174 0.710705 7.52118 1 6.44595 -58.8696 90.3029
175 0.910705 7.52118 1 6.25447 -59.268 -61.2498
176 1.1107 7.52118 1 6.06354 -57.7026 158.325
177 1.3107 7.52118 1 5.87322 -57.6725 4.02353
178 1.5107 7.52118 1 5.68356 -52.1915 169.03
179 1.7107 7.52118 1 5.49464 -52.2066 -15.2898
180 1.9107 7.52118 1 5.30652 -51.0978 151.571
181 0.110705 7.72118 1 7.01609 -61.0851 -39.6978
182 0.310705 7.72118 1 6.82303 -65.0108 37.7496
183 0.510705 7.72118 1 6.63037 -59.1195 -98.5928
184 0.710705 7.72118 1 6.43817 -59.1734 63.2864
185 0.910705 7.72118 1 6.24645 -65.6923 -15.6493
186 1.1107 7.72118 1 6.05527 -66.2152 -100.437
187 1.3107 7.72118 1 5.86468 -66.1481 109.418
188 1.5107 7.72118 1 5.67474 -62.0119 -138.142
189 1.7107 7.72118 1 5.48551 -60.3156 -34.4352
190 1.9107 7.72118 1 5.29707 -53.8629 163.014
