#Rx
# X(m), Y(m), Z(m), Distance(m), Power (dBm) Phase (deg)
1 4.88642 0.149652 1 7.97003 -50 29.9932
2 5.08642 0.149652 1 7.98387 -69.333 54.3711
3 5.28642 0.149652 1 8.00268 -51.7769 33.464
4 5.48642 0.149652 1 8.02644 -51.221 -69.2618
5 5.68642 0.149652 1 8.05509 -55.2145 -166.852
6 5.88642 0.149652 1 8.08858 -55.7814 92.6172
7 6.08642 0.149652 1 8.12687 -58.4406 -118.127
8 6.28642 0.149652 1 8.16987 -55.5992 11.7823
9 6.48642 0.149652 1 8.21751 -59.9884 146.211
10 4.88642 0.349652 1 7.77567 -50.2281 -128.392
11 5.08642 0.349652 1 7.78985 -60.0283 -81.3069
12 5.28642 0.349652 1 7.80913 -49.0188 -134.36
13 5.48642 0.349652 1 7.83347 -49.9144 121.253
14 5.68642 0.349652 1 7.86283 -52.6445 28.3087
15 5.88642 0.349652 1 7.89714 -53.7904 -97.1125
16 6.08642 0.349652 1 7.93635 -58.8091 16.4403
17 6.28642 0.349652 1 7.98037 -53.6255 153.289
18 6.48642 0.349652 1 8.02914 -67.8429 -117.866
19 4.88642 0.549652 1 7.5816 -47.3498 53.2354
20 5.08642 0.549652 1 7.59614 -58.8019 99.5449
21 5.28642 0.549652 1 7.61591 -49.0141 49.1166
22 5.48642 0.549652 1 7.64087 -49.9239 -48.2673
23 5.68642 0.549652 1 7.67096 -51.3829 -138.986
24 5.88642 0.549652 1 7.70613 -53.0591 72.5844
25 6.08642 0.549652 1 7.7463 -56.5305 178.048
26 6.28642 0.549652 1 7.7914 -55.2339 -58.9188
27 6.48642 0.549652 1 7.84135 -64.1336 -6.77332
28 4.88642 0.749652 1 7.38784 -49.1487 -123.47
29 5.08642 0.749652 1 7.40277 -55.8702 -32.2466
30 5.28642 0.749652 1 7.42306 -47.6216 -121.752
31 5.48642 0.749652 1 7.44866 -49.2243 142.769
32 5.68642 0.749652 1 7.47953 -49.0125 42.8856
33 5.88642 0.749652 1 7.51559 -53.5872 -132.795
34 6.08642 0.749652 1 7.55677 -53.5511 -37.5117
35 6.28642 0.749652 1 7.603 -60.1291 90.9818
36 6.48642 0.749652 1 7.65417 -66.257 128.511
37 4.88642 0.949652 1 7.19443 -48.9794 55.712
38 5.08642 0.949652 1 7.20976 -55.512 164.194
39 5.28642 0.949652 1 7.23059 -47.8196 59.5353
40 5.48642 0.949652 1 7.25687 -50.0743 -32.7291
41 5.68642 0.949652 1 7.28855 -49.5276 -145.385
42 5.88642 0.949652 1 7.32555 -52.8321 29.9935
43 6.08642 0.949652 1 7.3678 -57.2099 121.49
44 6.28642 0.949652 1 7.4152 -69.3377 -105.867
45 6.48642 0.949652 1 7.46766 -74.5388 23.0394
46 4.88642 1.14965 1 7.00139 -53.0883 -141.302
47 5.08642 1.14965 1 7.01714 -50.8081 3.84144
48 5.28642 1.14965 1 7.03854 -47.7603 -107.943
49 5.48642 1.14965 1 7.06553 -48.9837 159.55
50 5.68642 1.14965 1 7.09807 -49.1826 21.2043
51 5.88642 1.14965 1 7.13606 -53.0428 169.981
52 6.08642 1.14965 1 7.17942 -62.7153 -104.508
53 6.28642 1.14965 1 7.22806 -83.1308 -3.21296
54 6.48642 1.14965 1 7.28187 -66.3987 -165.514
55 4.88642 1.34965 1 6.80875 -57.1162 24.5441
56 5.08642 1.34965 1 6.82494 -48.889 -178.993
57 5.28642 1.34965 1 6.84694 -49.6196 78.3989
58 5.48642 1.34965 1 6.87469 -49.7479 -20.1649
59 5.68642 1.34965 1 6.90812 -48.0613 179.794
60 5.88642 1.34965 1 6.94715 -55.0544 -26.0343
61 6.08642 1.34965 1 6.99169 -70.1468 -63.4105
62 6.28642 1.34965 1 7.04162 -69.4579 -154.283
63 6.48642 1.34965 1 7.09685 -62.7608 8.29019
64 4.88642 1.54965 1 6.61655 -56.2603 134.153
65 5.08642 1.54965 1 6.63321 -47.058 10.2536
66 5.28642 1.54965 1 6.65584 -50.1468 -83.8957
67 5.48642 1.54965 1 6.68439 -48.8866 162.155
68 5.68642 1.54965 1 6.71876 -48.6282 -28.7151
69 5.88642 1.54965 1 6.75889 -59.1198 148.114
70 6.08642 1.54965 1 6.80465 -61.3268 80.9429
71 6.28642 1.54965 1 6.85595 -63.3098 -26.8223
72 6.48642 1.54965 1 6.91266 -64.2771 -159.367
73 4.88642 1.74965 1 6.42482 -54.5809 -88.0793
74 5.08642 1.74965 1 6.44198 -47.2562 -172.768
75 5.28642 1.74965 1 6.46528 -50.1716 110.232
76 5.48642 1.74965 1 6.49466 -47.5385 -32.1384
77 5.68642 1.74965 1 6.53004 -50.1588 122.085
78 5.88642 1.74965 1 6.57131 -61.2214 16.5982
79 6.08642 1.74965 1 6.61838 -58.1796 -89.1375
80 6.28642 1.74965 1 6.67111 -60.6859 140.331
81 6.48642 1.74965 1 6.72937 -61.1019 -0.32407
