#Rx
# X(m), Y(m), Z(m), Distance(m), Power (dBm) Phase (deg)
1 9.42507 3.65205 1 0 -71.3707 -176.125
2 9.62507 3.6517 1 0.2 -82.6771 -141.756
3 9.82507 3.65136 1 0.4 -74.0804 63.2688
4 10.0251 3.65102 1 0.6 -71.9142 -116.053
5 10.2251 3.65067 1 0.8 -77.8899 92.6047
6 10.4251 3.65033 1 1 -74.2924 153.264
7 10.6251 3.64998 1 1.2 -96.923 -60.7091
8 10.8251 3.64964 1 1.4 -60.5705 130.442
9 11.0251 3.6493 1 1.6 -60.8466 49.0546
10 11.2251 3.64895 1 1.8 -63.5667 -111.364
11 11.4251 3.64861 1 2 -65.351 74.107
12 11.6251 3.64826 1 2.2 -73.8848 -96.7057
13 9.42472 3.45205 1 4.40907 -75.4569 -119.102
14 9.62472 3.4517 1 4.60907 -76.865 90.4921
15 9.82472 3.45136 1 4.80907 -85.7151 -72.0668
16 10.0247 3.45102 1 5.00907 -67.8392 29.4055
17 10.2247 3.45067 1 5.20907 -68.7593 -147.275
18 10.4247 3.45033 1 5.40907 -67.5967 24.561
19 10.6247 3.44998 1 5.60907 -67.2834 -168.396
20 10.8247 3.44964 1 5.80907 -74.2013 134.377
21 11.0247 3.4493 1 6.00907 -66.7637 -43.004
22 11.2247 3.44895 1 6.20907 -66.9396 172.909
23 11.4247 3.44861 1 6.40907 -58.0094 -141.309
24 11.6247 3.44826 1 6.60907 -63.723 26.7813
25 9.42438 3.25205 1 8.81814 -68.2226 5.00593
26 9.62438 3.2517 1 9.01814 -69.242 -163.947
27 9.82438 3.25136 1 9.21814 -70.7806 41.7617
28 10.0244 3.25102 1 9.41814 -71.2869 -167.947
29 10.2244 3.25067 1 9.61814 -69.2066 31.2518
30 10.4244 3.25033 1 9.81814 -64.1555 -106.51
31 10.6244 3.24998 1 10.0181 -72.5152 78.8093
32 10.8244 3.24964 1 10.2181 -68.0867 -104.662
33 11.0244 3.2493 1 10.4181 -64.72 -3.28846
34 11.2244 3.24895 1 10.6181 -80.011 -22.2368
35 11.4244 3.24861 1 10.8181 -64.6817 144.024
36 11.6244 3.24826 1 11.0181 -65.0773 -11.5509
37 9.42404 3.05205 1 13.2272 -76.0705 -129.706
38 9.62404 3.05171 1 13.4272 -72.2942 72.4845
39 9.82404 3.05136 1 13.6272 -66.321 -146.886
40 10.024 3.05102 1 13.8272 -63.635 51.3821
41 10.224 3.05067 1 14.0272 -68.3825 -133.952
42 10.424 3.05033 1 14.2272 -70.6523 63.6759
43 10.624 3.04998 1 14.4272 -72.2819 116.606
44 10.824 3.04964 1 14.6272 -74.7629 -119.675
45 9.42369 2.85205 1 16.0414 -68.7312 54.8823
46 9.62369 2.85171 1 16.2414 -66.4544 -109.927
47 9.82369 2.85136 1 16.4414 -80.2209 117.846
48 10.0237 2.85102 1 16.6414 -69.1158 142.202
49 10.2237 2.85067 1 16.8414 -82.4713 -11.3484
50 10.4237 2.85033 1 17.0414 -78.1173 -87.8835
51 10.6237 2.84999 1 17.2414 -72.0962 111.121
52 10.8237 2.84964 1 17.4414 -82.5528 -25.9105
53 9.42335 2.65205 1 18.8556 -81.7379 15.2637
54 9.62335 2.65171 1 19.0556 -72.6279 -100.946
55 9.82335 2.65136 1 19.2556 -77.2401 38.3406
56 10.0233 2.65102 1 19.4556 -75.2077 168.383
57 10.2233 2.65067 1 19.6556 -71.8611 -44.5924
58 10.4233 2.65033 1 19.8556 -73.8694 170.103
59 10.6233 2.64999 1 20.0556 -76.5983 -4.29129
60 10.8233 2.64964 1 20.2556 -77.2982 57.3385
61 9.423 2.45205 1 21.6699 -77.7798 146.802
62 9.623 2.45171 1 21.8699 -71.0884 -83.2581
63 9.823 2.45136 1 22.0699 -72.7077 104.041
64 10.023 2.45102 1 22.2699 -82.1472 38.5043
65 10.223 2.45067 1 22.4699 -85.51 -136.374
66 10.423 2.45033 1 22.6699 -76.3179 7.07167
67 10.623 2.44999 1 22.8699 -74.0943 163.38
68 10.823 2.44964 1 23.0699 -75.9419 -46.41
69 9.42266 2.25205 1 24.4841 -68.5987 -64.2626
70 9.62266 2.25171 1 24.6841 -75.2333 122.843
71 9.82266 2.25136 1 24.8841 -76.7233 -100.942
72 10.0227 2.25102 1 25.0841 -76.4331 107.768
73 10.2227 2.25067 1 25.2841 -75.7181 -101.472
74 10.4227 2.25033 1 25.4841 -79.0033 126.85
75 10.6227 2.24999 1 25.6841 -76.0758 -3.6415
76 10.8227 2.24964 1 25.8841 -80.7084 61.5273
77 9.42232 2.05205 1 27.2983 -71.9658 160.587
78 9.62232 2.05171 1 27.4983 -76.2937 -29.3089
79 9.82232 2.05136 1 27.6983 -72.1412 97.1222
80 10.0223 2.05102 1 27.8983 -71.7242 -56.4063
81 10.2223 2.05067 1 28.0983 -76.4803 112.385
82 10.4223 2.05033 1 28.2983 -75.5817 -91.8559
83 10.6223 2.04999 1 28.4983 -75.8238 101.078
84 10.8223 2.04964 1 28.6983 -70.8733 -130.691
85 9.42197 1.85205 1 30.1125 -74.5062 -33.6885
86 9.62197 1.85171 1 30.3125 -76.6028 141.115
87 9.82197 1.85136 1 30.5125 -73.7256 -18.883
88 10.022 1.85102 1 30.7125 -74.0063 172.06
89 10.222 1.85067 1 30.9125 -79.189 -21.6848
90 10.422 1.85033 1 31.1125 -72.3286 103.196
91 10.622 1.84999 1 31.3125 -72.4661 -86.0619
92 10.822 1.84964 1 31.5125 -72.5217 61.8073
93 9.42163 1.65205 1 32.9267 -85.404 70.4407
94 9.62163 1.65171 1 33.1267 -79.0804 -145.008
95 9.82163 1.65136 1 33.3267 -77.0911 66.586
96 10.0216 1.65102 1 33.5267 -72.6598 -34.9899
97 10.2216 1.65067 1 33.7267 -71.646 169.046
98 10.4216 1.65033 1 33.9267 -72.7294 -17.4778
99 10.6216 1.64999 1 34.1267 -76.826 125.532
100 10.8216 1.64964 1 34.3267 -79.6587 -62.4388
101 11.0216 1.6493 1 34.5267 -75.6216 94.2504
102 11.2216 1.64895 1 34.7267 -81.9762 -106.281
103 11.4216 1.64861 1 34.9267 -84.7492 92.2457
104 11.6216 1.64827 1 35.1267 -75.5669 -165.386
105 9.42128 1.45205 1 37.3358 -81.2663 -60.9291
106 9.62128 1.45171 1 37.5358 -82.5034 65.5728
107 9.82128 1.45136 1 37.7358 -91.89 -11.8418
108 10.0213 1.45102 1 37.9358 -87.1922 -177.333
109 10.2213 1.45068 1 38.1358 -81.9465 -99.8128
110 10.4213 1.45033 1 38.3358 -76.9135 84.2768
111 10.6213 1.44999 1 38.5358 -73.8207 -63.0173
112 10.8213 1.44964 1 38.7358 -74.355 122.46
113 11.0213 1.4493 1 38.9358 -71.5715 -35.536
114 11.2213 1.44895 1 39.1358 -91.8032 -0.896666
115 11.4213 1.44861 1 39.3358 -88.486 -135.601
116 11.6213 1.44827 1 39.5358 -76.0021 68.1769
117 9.42094 1.25205 1 41.7449 -83.5774 86.9021
118 9.62094 1.25171 1 41.9449 -82.0969 -103.534
119 9.82094 1.25136 1 42.1449 -88.6264 142.584
120 10.0209 1.25102 1 42.3449 -89.652 -61.4961
121 10.2209 1.25068 1 42.5449 -80.2671 151.627
122 10.4209 1.25033 1 42.7449 -85.9858 -59.236
123 10.6209 1.24999 1 42.9449 -72.5438 57.5114
124 10.8209 1.24964 1 43.1449 -81.8212 -90.2708
125 11.0209 1.2493 1 43.3449 -79.0442 84.1882
126 11.2209 1.24896 1 43.5449 -71.0559 -77.5692
127 11.4209 1.24861 1 43.7449 -73.4163 126.378
128 11.6209 1.24827 1 43.9449 -78.7011 -43.6737
129 9.4206 1.05205 1 46.1539 -79.6243 -73.4878
130 9.6206 1.05171 1 46.3539 -81.7616 106.328
131 9.82059 1.05136 1 46.5539 -79.8079 -39.335
132 10.0206 1.05102 1 46.7539 -82.9537 134.628
133 10.2206 1.05068 1 46.9539 -79.2031 2.28417
134 10.4206 1.05033 1 47.1539 -100.261 -149.158
135 10.6206 1.04999 1 47.3539 -78.0789 -158.645
136 10.8206 1.04964 1 47.5539 -86.5999 145.016
137 11.0206 1.0493 1 47.7539 -76.6411 -96.7075
138 11.2206 1.04896 1 47.9539 -79.1601 82.5076
139 11.4206 1.04861 1 48.1539 -76.3729 -120.838
140 11.6206 1.04827 1 48.3539 -71.2798 83.3186
141 9.42025 0.852052 1 50.563 -88.6391 118.21
142 9.62025 0.851708 1 50.763 -86.3675 -0.497472
143 9.82025 0.851364 1 50.963 -80.9145 -179.974
144 10.0203 0.85102 1 51.163 -95.8336 -82.9449
145 10.2203 0.850676 1 51.363 -89.0709 -163.684
146 10.4202 0.850332 1 51.563 -80.2809 -90.5342
147 10.6202 0.849988 1 51.763 -95.8431 21.2995
148 10.8202 0.849644 1 51.963 -82.215 14.7282
149 11.0202 0.8493 1 52.163 -83.9629 117.606
150 11.2202 0.848956 1 52.363 -76.0599 -92.6819
151 11.4202 0.848612 1 52.563 -71.7116 72.6494
152 11.6202 0.848268 1 52.763 -73.9308 -75.9298
153 9.41991 0.652053 1 54.9721 -91.4526 -28.7875
154 9.61991 0.651709 1 55.1721 -81.5603 -139.424
155 9.81991 0.651365 1 55.3721 -82.7963 3.2254
156 10.0199 0.65102 1 55.5721 -102.216 30.3933
157 10.2199 0.650676 1 55.7721 -78.4343 -1.55796
158 10.4199 0.650332 1 55.9721 -85.5391 -156.611
159 10.6199 0.649988 1 56.1721 -78.1609 -163.899
160 10.8199 0.649644 1 56.3721 -76.6328 99.714
161 11.0199 0.6493 1 56.5721 -72.6986 -54.3677
162 11.2199 0.648956 1 56.7721 -73.8523 142.988
163 11.4199 0.648612 1 56.9721 -79.2455 -20.1247
164 11.6199 0.648268 1 57.1721 -88.6046 39.861
165 9.41956 0.452053 1 59.3811 -101.196 -90.5109
166 9.61956 0.451709 1 59.5811 -98.4276 -61.4955
167 9.81956 0.451365 1 59.7811 -81.8396 135.392
168 10.0196 0.451021 1 59.9811 -89.9885 -71.0757
169 10.2196 0.450677 1 60.1811 -83.5628 100.585
170 10.4196 0.450333 1 60.3811 -78.6042 -104.073
171 10.6196 0.449988 1 60.5811 -79.9437 130.765
172 10.8196 0.449644 1 60.7811 -73.1333 -19.2728
173 11.0196 0.4493 1 60.9811 -76.9213 163.761
174 11.2196 0.448956 1 61.1811 -87.7358 -45.5051
175 11.4196 0.448612 1 61.3811 -81.0249 73.2422
176 11.6196 0.448268 1 61.5811 -77.6653 -94.8173
177 9.41922 0.252053 1 63.7902 -82.9713 -52.4244
178 9.61922 0.251709 1 63.9902 -85.1954 151.601
179 9.81922 0.251365 1 64.1902 -83.4653 -126.698
180 10.0192 0.251021 1 64.3902 -80.0829 64.9325
181 10.2192 0.250677 1 64.5902 -78.9665 -120.236
182 10.4192 0.250333 1 64.7902 -82.0036 -145.437
183 10.6192 0.249989 1 64.9902 -78.2361 68.555
184 10.8192 0.249645 1 65.1902 -79.1526 76.2451
185 11.0192 0.249301 1 65.3902 -81.287 -80.4536
186 11.2192 0.248957 1 65.5902 -77.8233 104.544
187 11.4192 0.248613 1 65.7902 -74.6744 -56.0099
188 11.6192 0.248269 1 65.9902 -73.7426 132.044
