#Rx
# X(m), Y(m), Z(m), Distance(m), Power (dBm) Phase (deg)
1 9.42507 3.65205 1 0 -52.506 22.6787
2 9.62507 3.6517 1 0.2 -50.35 64.1813
3 9.82507 3.65136 1 0.4 -54.2323 134.689
4 10.0251 3.65102 1 0.6 -52.2249 173.936
5 10.2251 3.65067 1 0.8 -51.4139 -148.282
6 10.4251 3.65033 1 1 -54.8774 19.0098
7 10.6251 3.64998 1 1.2 -53.3679 44.7505
8 10.8251 3.64964 1 1.4 -53.6154 31.278
9 11.0251 3.6493 1 1.6 -52.1698 -0.816995
10 11.2251 3.64895 1 1.8 -53.2449 -35.9854
11 11.4251 3.64861 1 2 -51.4998 137.96
12 11.6251 3.64826 1 2.2 -48.9542 91.1576
13 9.42472 3.45205 1 4.40907 -50.836 -106.101
14 9.62472 3.4517 1 4.60907 -54.3291 -2.96611
15 9.82472 3.45136 1 4.80907 -53.1628 32.984
16 10.0247 3.45102 1 5.00907 -50.8851 80.0656
17 10.2247 3.45067 1 5.20907 -50.1011 141.832
18 10.4247 3.45033 1 5.40907 -51.3895 147.454
19 10.6247 3.44998 1 5.60907 -53.6685 -48.8733
20 10.8247 3.44964 1 5.80907 -55.068 -17.6798
21 11.0247 3.4493 1 6.00907 -52.2849 -43.5068
22 11.2247 3.44895 1 6.20907 -49.5115 -65.4241
23 11.4247 3.44861 1 6.40907 -55.7135 -120.551
24 11.6247 3.44826 1 6.60907 -52.3775 58.4013
25 9.42438 3.25205 1 8.81814 -49.1256 116.113
26 9.62438 3.2517 1 9.01814 -47.9322 -147.154
27 9.82438 3.25136 1 9.21814 -51.1361 -48.0192
28 10.0244 3.25102 1 9.41814 -53.256 -13.1574
29 10.2244 3.25067 1 9.61814 -50.8942 61.1381
30 10.4244 3.25033 1 9.81814 -54.7391 90.3758
31 10.6244 3.24998 1 10.0181 -53.9145 -82.7227
32 10.8244 3.24964 1 10.2181 -51.2382 -98.0597
33 11.0244 3.2493 1 10.4181 -54.9419 -72.1998
34 11.2244 3.24895 1 10.6181 -51.7809 -108.995
35 11.4244 3.24861 1 10.8181 -50.1996 -119.667
36 11.6244 3.24826 1 11.0181 -52.015 173.978
37 9.42404 3.05205 1 13.2272 -49.4252 18.9342
38 9.62404 3.05171 1 13.4272 -49.1514 108.114
39 9.82404 3.05136 1 13.6272 -49.2268 -156.114
40 10.024 3.05102 1 13.8272 -50.1571 -74.8972
41 10.224 3.05067 1 14.0272 -52.0226 -61.1419
42 10.424 3.05033 1 14.2272 -51.7576 12.2352
43 10.624 3.04998 1 14.4272 -53.5561 2.46965
44 10.824 3.04964 1 14.6272 -56.6614 -150.819
45 9.42369 2.85205 1 16.0414 -51.412 -122.35
46 9.62369 2.85171 1 16.2414 -52.0826 -3.06771
47 9.82369 2.85136 1 16.4414 -50.6269 76.3345
48 10.0237 2.85102 1 16.6414 -55.4573 162.701
49 10.2237 2.85067 1 16.8414 -53.1035 -105.916
50 10.4237 2.85033 1 17.0414 -51.1188 -99.7428
51 10.6237 2.84999 1 17.2414 -54.8639 -37.7057
52 10.8237 2.84964 1 17.4414 -52.0614 -50.3386
53 9.42335 2.65205 1 18.8556 -50.5446 105.093
54 9.62335 2.65171 1 19.0556 -50.833 -129.969
55 9.82335 2.65136 1 19.2556 -53.9215 -39.6738
56 10.0233 2.65102 1 19.4556 -50.8223 53.6985
57 10.2233 2.65067 1 19.6556 -52.9727 106.32
58 10.4233 2.65033 1 19.8556 -52.2983 153.501
59 10.6233 2.64999 1 20.0556 -52.9141 -134.949
60 10.8233 2.64964 1 20.2556 -52.823 -124.964
61 9.423 2.45205 1 21.6699 -51.1821 -43.8185
62 9.623 2.45171 1 21.8699 -51.4538 94.6064
63 9.823 2.45136 1 22.0699 -53.7111 -167.404
64 10.023 2.45102 1 22.2699 -50.5033 -72.7282
65 10.223 2.45067 1 22.4699 -53.3365 -1.74817
66 10.423 2.45033 1 22.6699 -54.8918 77.9948
67 10.623 2.44999 1 22.8699 -48.7455 122.344
68 10.823 2.44964 1 23.0699 -57.3821 -173.906
69 9.42266 2.25205 1 24.4841 -52.6623 168.961
70 9.62266 2.25171 1 24.6841 -50.6546 -56.268
71 9.82266 2.25136 1 24.8841 -53.074 59.0702
72 10.0227 2.25102 1 25.0841 -52.0175 152.034
73 10.2227 2.25067 1 25.2841 -50.4062 -111.612
74 10.4227 2.25033 1 25.4841 -53.4727 -45.1353
75 10.6227 2.24999 1 25.6841 -53.1974 -6.07114
76 10.8227 2.24964 1 25.8841 -51.5385 79.5285
77 9.42232 2.05205 1 27.2983 -53.7588 31.6594
78 9.62232 2.05171 1 27.4983 -51.8885 159.375
79 9.82232 2.05136 1 27.6983 -51.5524 -70.5247
80 10.0223 2.05102 1 27.8983 -53.5288 23.2112
81 10.2223 2.05067 1 28.0983 -51.4165 120.077
82 10.4223 2.05033 1 28.2983 -53.3001 -153.008
83 10.6223 2.04999 1 28.4983 -54.2377 -70.7593
84 10.8223 2.04964 1 28.6983 -51.3717 -42.835
85 9.42197 1.85205 1 30.1125 -54.32 -111.328
86 9.62197 1.85171 1 30.3125 -52.3004 8.54527
87 9.82197 1.85136 1 30.5125 -53.0929 138.505
88 10.022 1.85102 1 30.7125 -53.379 -109.723
89 10.222 1.85067 1 30.9125 -51.5788 -16.0277
90 10.422 1.85033 1 31.1125 -51.6841 92.0717
91 10.622 1.84999 1 31.3125 -52.1151 158.754
92 10.822 1.84964 1 31.5125 -57.2024 -155.449
93 9.42163 1.65205 1 32.9267 -53.2356 81.1334
94 9.62163 1.65171 1 33.1267 -52.751 -127.234
95 9.82163 1.65136 1 33.3267 -52.419 -5.71712
96 10.0216 1.65102 1 33.5267 -52.627 127.459
97 10.2216 1.65067 1 33.7267 -51.6242 -147.492
98 10.4216 1.65033 1 33.9267 -52.7381 -30.0031
99 10.6216 1.64999 1 34.1267 -56.3042 32.1833
100 10.8216 1.64964 1 34.3267 -53.7025 92.3636
101 11.0216 1.6493 1 34.5267 -52.7535 152.6
102 11.2216 1.64895 1 34.7267 -57.3311 -144.605
103 11.4216 1.64861 1 34.9267 -79.2873 -62.3201
104 11.6216 1.64827 1 35.1267 -74.1985 -106.709
105 9.42128 1.45205 1 37.3358 -51.5411 -70.8665
106 9.62128 1.45171 1 37.5358 -53.2516 80.1971
107 9.82128 1.45136 1 37.7358 -51.5585 -147.465
108 10.0213 1.45102 1 37.9358 -53.5538 -11.6409
109 10.2213 1.45068 1 38.1358 -55.1557 74.6639
110 10.4213 1.45033 1 38.3358 -51.7025 172.882
111 10.6213 1.44999 1 38.5358 -51.4186 -75.5101
112 10.8213 1.44964 1 38.7358 -54.5726 1.82711
113 11.0213 1.4493 1 38.9358 -59.1905 26.0189
114 11.2213 1.44895 1 39.1358 -54.6788 76.8826
115 11.4213 1.44861 1 39.3358 -65.4284 138.853
116 11.6213 1.44827 1 39.5358 -69.9786 -178.725
117 9.42094 1.25205 1 41.7449 -52.1219 130.535
118 9.62094 1.25171 1 41.9449 -53.9095 -69.9556
119 9.82094 1.25136 1 42.1449 -53.6991 64.5286
120 10.0209 1.25102 1 42.3449 -52.8239 -171.251
121 10.2209 1.25068 1 42.5449 -54.621 -48.8346
122 10.4209 1.25033 1 42.7449 -54.7488 31.8988
123 10.6209 1.24999 1 42.9449 -53.3925 124.654
124 10.8209 1.24964 1 43.1449 -52.1631 -144.264
125 11.0209 1.2493 1 43.3449 -52.0541 -47.4257
126 11.2209 1.24896 1 43.5449 -56.8491 -4.658
127 11.4209 1.24861 1 43.7449 -59.8245 -2.85294
128 11.6209 1.24827 1 43.9449 -62.5528 17.4249
129 9.4206 1.05205 1 46.1539 -52.3503 -49.1835
130 9.6206 1.05171 1 46.3539 -52.5981 121.702
131 9.82059 1.05136 1 46.5539 -53.3902 -88.2691
132 10.0206 1.05102 1 46.7539 -53.1891 50.9912
133 10.2206 1.05068 1 46.9539 -57.8059 162.937
134 10.4206 1.05033 1 47.1539 -55.7612 -109.995
135 10.6206 1.04999 1 47.3539 -53.5705 -13.728
136 10.8206 1.04964 1 47.5539 -52.8781 81.2848
137 11.0206 1.0493 1 47.7539 -52.6954 169.322
138 11.2206 1.04896 1 47.9539 -55.8879 -120.731
139 11.4206 1.04861 1 48.1539 -55.0132 -66.7918
140 11.6206 1.04827 1 48.3539 -56.0019 -14.4299
141 9.42025 0.852052 1 50.563 -52.8513 144.511
142 9.62025 0.851708 1 50.763 -52.8868 -41.8258
143 9.82025 0.851364 1 50.963 -53.9072 113.671
144 10.0203 0.85102 1 51.163 -54.9542 -115.46
145 10.2203 0.850676 1 51.363 -54.4027 15.3108
146 10.4202 0.850332 1 51.563 -55.5487 128.257
147 10.6202 0.849988 1 51.763 -58.9176 -136.063
148 10.8202 0.849644 1 51.963 -56.8103 -61.2655
149 11.0202 0.8493 1 52.163 -52.6047 21.411
150 11.2202 0.848956 1 52.363 -51.7882 119.002
151 11.4202 0.848612 1 52.563 -52.459 178.789
152 11.6202 0.848268 1 52.763 -55.5343 -108.381
153 9.41991 0.652053 1 54.9721 -70.111 -83.6879
154 9.61991 0.651709 1 55.1721 -52.6662 138.071
155 9.81991 0.651365 1 55.3721 -51.785 -54.1312
156 10.0199 0.65102 1 55.5721 -52.8525 97.1175
157 10.2199 0.650676 1 55.7721 -55.6702 -118.759
158 10.4199 0.650332 1 55.9721 -55.5073 -16.0407
159 10.6199 0.649988 1 56.1721 -58.8867 97.0983
160 10.8199 0.649644 1 56.3721 -56.1652 -178.405
161 11.0199 0.6493 1 56.5721 -56.1227 -109.275
162 11.2199 0.648956 1 56.7721 -54.2072 -13.0472
163 11.4199 0.648612 1 56.9721 -55.7281 33.1611
164 11.6199 0.648268 1 57.1721 -52.8352 114.626
165 9.41956 0.452053 1 59.3811 -86.7903 113.809
166 9.61956 0.451709 1 59.5811 -53.8228 -20.4091
167 9.81956 0.451365 1 59.7811 -53.7884 143.517
168 10.0196 0.451021 1 59.9811 -53.0225 -64.918
169 10.2196 0.450677 1 60.1811 -53.9198 66.1511
170 10.4196 0.450333 1 60.3811 -52.47 -159.643
171 10.6196 0.449988 1 60.5811 -53.2395 -39.6114
172 10.8196 0.449644 1 60.7811 -55.3843 74.0703
173 11.0196 0.4493 1 60.9811 -59.0698 155.314
174 11.2196 0.448956 1 61.1811 -58.1654 -140.509
175 11.4196 0.448612 1 61.3811 -57.4392 -70.7269
176 11.6196 0.448268 1 61.5811 -54.6428 -17.6766
177 9.41922 0.252053 1 63.7902 -78.7058 -72.8784
178 9.61922 0.251709 1 63.9902 -62.3386 107.869
179 9.81922 0.251365 1 64.1902 -50.8517 -32.794
180 10.0192 0.251021 1 64.3902 -51.55 131.193
181 10.2192 0.250677 1 64.5902 -52.2782 -93.6995
182 10.4192 0.250333 1 64.7902 -52.113 45.6568
183 10.6192 0.249989 1 64.9902 -51.543 166.46
184 10.8192 0.249645 1 65.1902 -54.9232 -73.3606
185 11.0192 0.249301 1 65.3902 -57.1576 20.3551
186 11.2192 0.248957 1 65.5902 -53.6542 96.5809
187 11.4192 0.248613 1 65.7902 -55.8984 -165.736
188 11.6192 0.248269 1 65.9902 -55.7753 -106.477
