#Rx
# X(m), Y(m), Z(m), Distance(m), Power (dBm) Phase (deg)
1 4.10728 4.08383 1 8.84763 -59.587 -79.4751
2 4.30728 4.08383 1 8.67347 -61.6925 6.85708
3 4.50728 4.08383 1 8.50046 -53.8886 35.0534
4 4.70728 4.08383 1 8.32865 -58.947 -150.359
5 4.90728 4.08383 1 8.15813 -61.5024 -111.234
6 4.10728 4.28383 1 8.93788 -56.1899 -120.94
7 4.30728 4.28383 1 8.76552 -60.5211 19.1292
8 4.50728 4.28383 1 8.59436 -62.8719 115.76
9 4.70728 4.28383 1 8.42447 -59.5557 141.095
10 4.90728 4.28383 1 8.25593 -67.7171 -51.41
11 4.10728 4.48383 1 9.03167 -60.8889 -34.5539
12 4.30728 4.48383 1 8.86113 -61.7538 -23.6968
13 4.50728 4.48383 1 8.69185 -60.4661 138.039
14 4.70728 4.48383 1 8.52391 -69.0218 -96.2866
15 4.90728 4.48383 1 8.35737 -63.5675 76.736
16 4.10728 4.68383 1 9.12887 -62.1563 -43.6869
17 4.30728 4.68383 1 8.96019 -59.9366 59.1796
18 4.50728 4.68383 1 8.79281 -65.638 -90.1664
19 4.70728 4.68383 1 8.62683 -60.5342 15.403
20 4.90728 4.68383 1 8.46232 -69.084 62.1264
21 4.10728 4.88383 1 9.22938 -69.1275 53.2096
22 4.30728 4.88383 1 9.06257 -67.9568 -140.224
23 4.50728 4.88383 1 8.89713 -70.2023 -80.6269
24 4.70728 4.88383 1 8.73313 -60.2465 100.35
25 4.90728 4.88383 1 8.57066 -70.3849 178.748
26 4.10728 5.08383 1 9.3331 -66.1881 -177.809
27 4.30728 5.08383 1 9.16818 -62.4981 -130.243
28 4.50728 5.08383 1 9.00467 -66.7758 -4.56946
29 4.70728 5.08383 1 8.84267 -61.8609 141.96
30 4.90728 5.08383 1 8.68225 -60.8714 -166.66
31 4.10728 5.28383 1 9.43992 -66.2339 -128.298
32 4.30728 5.28383 1 9.27689 -66.4077 -25.9162
33 4.50728 5.28383 1 9.11534 -61.5403 32.7555
34 4.70728 5.28383 1 8.95533 -59.741 145.312
35 4.90728 5.28383 1 8.79697 -55.7194 -123.186
36 4.10728 5.48383 1 9.54973 -63.5399 -130.602
37 4.30728 5.48383 1 9.38861 -60.5943 -33.898
38 4.50728 5.48383 1 9.22901 -57.0076 79.5055
39 4.70728 5.48383 1 9.07101 -57.2522 172.189
40 4.90728 5.48383 1 8.9147 -56.4339 -97.3514
41 4.10728 5.68383 1 9.66243 -60.0636 -64.5517
42 4.30728 5.68383 1 9.50322 -57.3281 11.8734
43 4.50728 5.68383 1 9.34558 -57.0816 107.508
44 4.70728 5.68383 1 9.18959 -56.5359 -169.091
45 4.90728 5.68383 1 9.03533 -56.8018 -70.8609
46 4.10728 5.88383 1 9.77793 -58.2214 -61.1592
47 4.30728 5.88383 1 9.62063 -55.1911 32.4766
48 4.50728 5.88383 1 9.46494 -56.0291 111.088
49 4.70728 5.88383 1 9.31095 -58.1855 -151.412
50 4.90728 5.88383 1 9.15874 -58.2937 -90.869
51 4.10728 6.08383 1 9.89612 -58.2072 -34.0296
52 4.30728 6.08383 1 9.74073 -59.7218 53.4382
53 4.50728 6.08383 1 9.58699 -58.5872 139.249
54 4.70728 6.08383 1 9.43499 -58.834 -171.081
55 4.90728 6.08383 1 9.28481 -59.7749 -86.2393
56 4.10728 6.28383 1 10.0169 -61.0674 -35.1925
57 4.30728 6.28383 1 9.86342 -58.6999 35.5585
58 4.50728 6.28383 1 9.71163 -58.5915 132.265
59 4.70728 6.28383 1 9.56161 -56.7547 -165.097
60 4.90728 6.28383 1 9.41345 -61.2542 -128.116
61 4.10728 6.48383 1 10.1402 -58.6343 -36.6001
62 4.30728 6.48383 1 9.98861 -57.4818 36.1766
63 4.50728 6.48383 1 9.83875 -63.336 83.5179
64 4.70728 6.48383 1 9.6907 -60.3471 164.432
65 4.90728 6.48383 1 9.54454 -58.0256 -135.445
66 4.10728 6.68383 1 10.2659 -57.5688 -41.3237
67 4.30728 6.68383 1 10.1162 -60.5711 16.3419
68 4.50728 6.68383 1 9.96826 -58.4454 65.9097
69 4.70728 6.68383 1 9.82216 -60.8275 136.802
70 4.90728 6.68383 1 9.67799 -56.0734 38.6853
71 4.10728 6.88383 1 10.3939 -61.174 -58.5973
72 4.30728 6.88383 1 10.2461 -59.5856 11.1462
73 4.50728 6.88383 1 10.1001 -59.9446 88.0171
74 4.70728 6.88383 1 9.95591 -58.0521 -70.384
75 4.90728 6.88383 1 9.8137 -59.6596 13.5934
76 4.10728 7.08383 1 10.5242 -60.0611 -91.2014
77 4.30728 7.08383 1 10.3783 -60.9819 7.03946
78 4.50728 7.08383 1 10.2341 -57.4093 -134.321
79 4.70728 7.08383 1 10.0918 -57.431 -87.2843
80 4.90728 7.08383 1 9.95158 -59.7336 -22.1082
81 4.10728 7.28383 1 10.6567 -59.3428 -87.4274
82 4.30728 7.28383 1 10.5125 -57.2116 139.471
83 4.50728 7.28383 1 10.3702 -56.4541 -153.308
84 4.70728 7.28383 1 10.2299 -56.651 -103.148
85 4.90728 7.28383 1 10.0915 -55.9806 -51.7742
86 4.10728 7.48383 1 10.7912 -55.1614 55.8905
87 4.30728 7.48383 1 10.6489 -58.3701 115.05
88 4.50728 7.48383 1 10.5084 -57.9777 179.689
89 4.70728 7.48383 1 10.37 -55.8388 -127.038
90 4.90728 7.48383 1 10.2335 -59.454 175.483
91 4.10728 7.68383 1 10.9277 -55.9735 34.7057
92 4.30728 7.68383 1 10.7872 -56.8681 81.0141
93 4.50728 7.68383 1 10.6486 -58.8178 143.817
94 4.70728 7.68383 1 10.512 -60.8807 89.1409
95 4.90728 7.68383 1 10.3774 -60.572 -61.4532
