#Rx
# X(m), Y(m), Z(m), Distance(m), Power (dBm) Phase (deg)
1 4.88642 0.149652 1 10.547 -54.103 157.136
2 5.08642 0.149652 1 10.4161 -56.8041 -178.243
3 5.28642 0.149652 1 10.2875 -54.3658 -155.92
4 5.48642 0.149652 1 10.1611 -54.2966 3.43464
5 5.68642 0.149652 1 10.0372 -53.2691 2.7117
6 5.88642 0.149652 1 9.91573 -53.8923 -15.8217
7 6.08642 0.149652 1 9.79685 -51.563 -35.2596
8 6.28642 0.149652 1 9.68064 -51.6607 -58.462
9 6.48642 0.149652 1 9.5672 -51.8782 -86.0797
10 4.88642 0.349652 1 10.4015 -56.5924 -137.389
11 5.08642 0.349652 1 10.2688 -54.447 -127.695
12 5.28642 0.349652 1 10.1383 -54.5766 -86.4799
13 5.48642 0.349652 1 10.0101 -52.739 -89.0353
14 5.68642 0.349652 1 9.88422 -54.4656 100.801
15 5.88642 0.349652 1 9.76086 -53.5974 90.1897
16 6.08642 0.349652 1 9.64007 -52.9024 76.3201
17 6.28642 0.349652 1 9.52194 -50.8602 52.2738
18 6.48642 0.349652 1 9.40658 -53.3687 22.9225
19 4.88642 0.549652 1 10.2579 -54.496 -63.5491
20 5.08642 0.549652 1 10.1233 -55.926 -57.4349
21 5.28642 0.549652 1 9.99087 -55.2554 -36.0335
22 5.48642 0.549652 1 9.86073 -55.0191 -14.7374
23 5.68642 0.549652 1 9.73296 -55.6143 -3.71747
24 5.88642 0.549652 1 9.60765 -53.4462 155.048
25 6.08642 0.549652 1 9.48491 -52.8934 150.458
26 6.28642 0.549652 1 9.36483 -53.5892 132.49
27 6.48642 0.549652 1 9.24751 -50.1745 121.051
28 4.88642 0.749652 1 10.1162 -55.8821 0.965307
29 5.08642 0.749652 1 9.97966 -52.3467 7.45311
30 5.28642 0.749652 1 9.84531 -54.7307 29.5721
31 5.48642 0.749652 1 9.71322 -54.4101 38.4921
32 5.68642 0.749652 1 9.58348 -53.7625 66.7732
33 5.88642 0.749652 1 9.45619 -53.3844 61.2319
34 6.08642 0.749652 1 9.33146 -51.7576 -105.763
35 6.28642 0.749652 1 9.20937 -53.9108 -131.974
36 6.48642 0.749652 1 9.09005 -52.7088 -137.119
37 4.88642 0.949652 1 9.97646 -54.6904 25.685
38 5.08642 0.949652 1 9.838 -53.8781 57.6268
39 5.28642 0.949652 1 9.70169 -55.8656 77.0495
40 5.48642 0.949652 1 9.56762 -54.5929 117.765
41 5.68642 0.949652 1 9.43588 -57.2513 131.179
42 5.88642 0.949652 1 9.30657 -52.0895 151.01
43 6.08642 0.949652 1 9.1798 -59.0798 153.049
44 6.28642 0.949652 1 9.05567 -49.7105 -49.3082
45 6.48642 0.949652 1 8.9343 -53.2553 -62.7146
46 4.88642 1.14965 1 9.83882 -55.5524 59.1993
47 5.08642 1.14965 1 9.6984 -58.7563 120.141
48 5.28642 1.14965 1 9.56009 -54.0491 151.165
49 5.48642 1.14965 1 9.42401 -52.2638 176.803
50 5.68642 1.14965 1 9.29023 -52.8359 177.554
51 5.88642 1.14965 1 9.15887 -56.236 -143.612
52 6.08642 1.14965 1 9.03002 -50.5102 -141.418
53 6.28642 1.14965 1 8.90381 -54.5162 -124.014
54 6.48642 1.14965 1 8.78034 -51.8612 38.4026
55 4.88642 1.34965 1 9.70335 -54.2527 115.847
56 5.08642 1.34965 1 9.56094 -53.8654 148.977
57 5.28642 1.34965 1 9.42062 -54.1785 -171.574
58 5.48642 1.34965 1 9.28248 -55.1397 -146.374
59 5.68642 1.34965 1 9.14664 -55.0488 -108.423
60 5.88642 1.34965 1 9.01318 -54.7606 -93.6789
61 6.08642 1.34965 1 8.88223 -54.4475 -68.7744
62 6.28642 1.34965 1 8.75388 -53.7702 -66.4576
63 6.48642 1.34965 1 8.62826 -53.6773 103.02
64 4.88642 1.54965 1 9.57014 -54.6082 133.011
65 5.08642 1.54965 1 9.42572 -53.24 177.34
66 5.28642 1.54965 1 9.28335 -57.457 -125.412
67 5.48642 1.54965 1 9.14315 -53.6797 -75.919
68 5.68642 1.54965 1 9.0052 -54.5535 -48.0082
69 5.88642 1.54965 1 8.86962 -52.8798 -22.435
70 6.08642 1.54965 1 8.73651 -52.1024 -19.1022
71 6.28642 1.54965 1 8.60599 -53.523 2.16207
72 6.48642 1.54965 1 8.47818 -52.988 -0.248993
73 4.88642 1.74965 1 9.43929 -54.5676 166.988
74 5.08642 1.74965 1 9.29283 -54.8043 -138.937
75 5.28642 1.74965 1 9.1484 -52.5627 -95.6776
76 5.48642 1.74965 1 9.00609 -53.4953 -52.024
77 5.68642 1.74965 1 8.86601 -52.4546 -7.26545
78 5.88642 1.74965 1 8.72827 -53.4161 10.4691
79 6.08642 1.74965 1 8.59297 -55.0603 39.1874
80 6.28642 1.74965 1 8.46024 -55.3943 76.5645
81 6.48642 1.74965 1 8.33019 -49.5189 82.8432
