#Rx
# X(m), Y(m), Z(m), Distance(m), Power (dBm) Phase (deg)
1 4.88642 0.149652 1 8.17837 -59.0428 118.001
2 5.08642 0.149652 1 8.13167 -60.4992 -102.11
3 5.28642 0.149652 1 8.08966 -58.5329 10.1399
4 5.48642 0.149652 1 8.05239 -55.6547 118.842
5 5.68642 0.149652 1 8.01994 -56.2003 -149.685
6 5.88642 0.149652 1 7.99237 -54.6109 -73.4649
7 6.08642 0.149652 1 7.96972 -56.0053 -15.3904
8 6.28642 0.149652 1 7.95203 -57.6846 31.5183
9 6.48642 0.149652 1 7.93935 -59.303 57.8471
10 4.88642 0.349652 1 7.9898 -59.7423 -35.3789
11 5.08642 0.349652 1 7.942 -58.0425 93.9296
12 5.28642 0.349652 1 7.89897 -58.0128 -161.565
13 5.48642 0.349652 1 7.8608 -55.8526 -45.7764
14 5.68642 0.349652 1 7.82756 -57.8392 34.6575
15 5.88642 0.349652 1 7.7993 -56.3542 107.495
16 6.08642 0.349652 1 7.77609 -55.8742 171.237
17 6.28642 0.349652 1 7.75796 -54.9338 -133.503
18 6.48642 0.349652 1 7.74496 -55.495 -93.7602
19 4.88642 0.549652 1 7.8018 -63.929 128.692
20 5.08642 0.549652 1 7.75284 -60.29 -90.2545
21 5.28642 0.549652 1 7.70876 -58.3945 44.3451
22 5.48642 0.549652 1 7.66964 -55.8053 142.467
23 5.68642 0.549652 1 7.63556 -54.4008 -130.585
24 5.88642 0.549652 1 7.6066 -52.8198 -57.1681
25 6.08642 0.549652 1 7.58279 -51.566 5.50377
26 6.28642 0.549652 1 7.5642 -51.1071 57.0056
27 6.48642 0.549652 1 7.55087 -52.6937 88.2225
28 4.88642 0.749652 1 7.61441 -58.5395 -59.6944
29 5.08642 0.749652 1 7.56424 -54.8918 82.0444
30 5.28642 0.749652 1 7.51905 -54.8228 -150.315
31 5.48642 0.749652 1 7.47894 -52.8122 -44.3211
32 5.68642 0.749652 1 7.44399 -52.8636 42.3827
33 5.88642 0.749652 1 7.41427 -53.7814 127.919
34 6.08642 0.749652 1 7.38985 -54.3024 -166.012
35 6.28642 0.749652 1 7.37078 -54.5706 -132.37
36 6.48642 0.749652 1 7.35709 -54.1151 -98.1768
37 4.88642 0.949652 1 7.42768 -58.323 113.178
38 5.08642 0.949652 1 7.37624 -56.9738 -97.7996
39 5.28642 0.949652 1 7.32989 -53.845 46.0028
40 5.48642 0.949652 1 7.28874 -53.142 153.877
41 5.68642 0.949652 1 7.25288 -54.0959 -113.298
42 5.88642 0.949652 1 7.22237 -54.7712 -31.5643
43 6.08642 0.949652 1 7.1973 -56.494 27.7554
44 6.28642 0.949652 1 7.17771 -55.8797 79.7738
45 6.48642 0.949652 1 7.16366 -57.1687 115.346
46 4.88642 1.14965 1 7.24166 -53.6846 -74.2107
47 5.08642 1.14965 1 7.18888 -53.5215 78.3882
48 5.28642 1.14965 1 7.14132 -52.8279 -145.801
49 5.48642 1.14965 1 7.09908 -52.4482 -27.1476
50 5.68642 1.14965 1 7.06225 -55.775 62.0635
51 5.88642 1.14965 1 7.03092 -56.4451 149.81
52 6.08642 1.14965 1 7.00516 -54.9782 -142.486
53 6.28642 1.14965 1 6.98504 -53.5544 -78.7557
54 6.48642 1.14965 1 6.97059 -58.0745 2.5939
55 4.88642 1.34965 1 7.0564 -53.697 101.625
56 5.08642 1.34965 1 7.00223 -53.7375 -104.411
57 5.28642 1.34965 1 6.95339 -52.3554 41.2994
58 5.48642 1.34965 1 6.91 -54.241 160.566
59 5.68642 1.34965 1 6.87216 -55.3415 -102.857
60 5.88642 1.34965 1 6.83996 -55.493 -26.8984
61 6.08642 1.34965 1 6.81348 -53.554 54.5278
62 6.28642 1.34965 1 6.79278 -53.3148 121.108
63 6.48642 1.34965 1 6.77793 -57.2557 -147.524
64 4.88642 1.54965 1 6.87197 -52.7882 -85.1061
65 5.08642 1.54965 1 6.81633 -53.0147 72.1787
66 5.28642 1.54965 1 6.76615 -52.5136 -150.051
67 5.48642 1.54965 1 6.72155 -54.0058 -27.0306
68 5.68642 1.54965 1 6.68264 -55.6359 66.4414
69 5.88642 1.54965 1 6.64952 -55.3965 153.947
70 6.08642 1.54965 1 6.62228 -56.3038 -127.709
71 6.28642 1.54965 1 6.60099 -52.7699 -52.8879
72 6.48642 1.54965 1 6.58571 -52.6128 21.9514
73 4.88642 1.74965 1 6.68843 -51.0315 84.2649
74 5.08642 1.74965 1 6.63126 -51.8368 -123.407
75 5.28642 1.74965 1 6.57967 -53.0906 15.9367
76 5.48642 1.74965 1 6.53379 -55.8335 138.02
77 5.68642 1.74965 1 6.49376 -57.5234 -106.962
78 5.88642 1.74965 1 6.45967 -58.659 -0.631301
79 6.08642 1.74965 1 6.43163 -55.7712 110.454
80 6.28642 1.74965 1 6.4097 -52.23 142.181
81 6.48642 1.74965 1 6.39396 -48.7355 -165.84
