#Rx
# X(m), Y(m), Z(m), Distance(m), Power (dBm) Phase (deg)
1 0.110705 4.12118 1 12.449 -49.9063 20.7291
2 0.310705 4.12118 1 12.2607 -50.0005 -172.35
3 0.510705 4.12118 1 12.0727 -50.1412 20.2705
4 0.710705 4.12118 1 11.8851 -50.6741 -162.47
5 0.910705 4.12118 1 11.698 -50.0486 14.3041
6 1.1107 4.12118 1 11.5113 -49.2449 178.35
7 1.3107 4.12118 1 11.325 -51.4558 -18.8574
8 1.5107 4.12118 1 11.1392 -54.399 159.414
9 1.7107 4.12118 1 10.9539 -51.7142 -9.05349
10 1.9107 4.12118 1 10.7691 -50.7404 159.923
11 0.110705 4.32118 1 12.3903 -49.2361 -175.431
12 0.310705 4.32118 1 12.201 -49.1088 11.7418
13 0.510705 4.32118 1 12.0121 -51.0349 -171.409
14 0.710705 4.32118 1 11.8236 -49.6445 1.46603
15 0.910705 4.32118 1 11.6355 -52.1067 169.102
16 1.1107 4.32118 1 11.4477 -52.7181 28.0792
17 1.3107 4.32118 1 11.2604 -51.7732 -154.921
18 1.5107 4.32118 1 11.0735 -52.3058 -1.15944
19 1.7107 4.32118 1 10.8871 -55.6823 161.11
20 1.9107 4.32118 1 10.7012 -55.7462 -10.0087
21 0.110705 4.52118 1 12.3345 -48.6797 -6.91223
22 0.310705 4.52118 1 12.1444 -48.2256 173.445
23 0.510705 4.52118 1 11.9546 -49.5769 -7.51073
24 0.710705 4.52118 1 11.7652 -52.8958 -173.14
25 0.910705 4.52118 1 11.5761 -53.2182 16.2374
26 1.1107 4.52118 1 11.3873 -52.2518 -178.51
27 1.3107 4.52118 1 11.199 -56.2017 -18.3801
28 1.5107 4.52118 1 11.0111 -56.4836 -178.795
29 1.7107 4.52118 1 10.8236 -53.2972 37.4759
30 1.9107 4.52118 1 10.6366 -56.0316 -143.997
31 0.110705 4.72118 1 12.2818 -48.978 146.252
32 0.310705 4.72118 1 12.0908 -51.8242 -36.3281
33 0.510705 4.72118 1 11.9002 -51.562 164.635
34 0.710705 4.72118 1 11.7098 -49.9802 -19.3218
35 0.910705 4.72118 1 11.5198 -51.5066 158.675
36 1.1107 4.72118 1 11.3302 -56.265 23.7161
37 1.3107 4.72118 1 11.1409 -55.3752 -141.505
38 1.5107 4.72118 1 10.9519 -56.1295 33.0713
39 1.7107 4.72118 1 10.7634 -59.2593 -129.253
40 1.9107 4.72118 1 10.5753 -55.7971 51.2261
41 0.110705 4.92118 1 12.232 -51.002 -59.4644
42 0.310705 4.92118 1 12.0403 -52.3159 137.47
43 0.510705 4.92118 1 11.8489 -52.5188 -48.491
44 0.710705 4.92118 1 11.6577 -55.5123 147.842
45 0.910705 4.92118 1 11.4668 -55.5494 1.28245
46 1.1107 4.92118 1 11.2763 -52.2738 178.585
47 1.3107 4.92118 1 11.086 -54.435 -2.34336
48 1.5107 4.92118 1 10.8962 -54.2545 -153.993
49 1.7107 4.92118 1 10.7067 -52.5873 21.7725
50 1.9107 4.92118 1 10.5175 -57.8618 -149.158
51 0.110705 5.12118 1 12.1854 -51.4774 92.6998
52 0.310705 5.12118 1 11.9929 -52.8271 -88.4695
53 0.510705 5.12118 1 11.8007 -54.8356 111.692
54 0.710705 5.12118 1 11.6087 -52.6852 -47.8369
55 0.910705 5.12118 1 11.4171 -53.4545 130.89
56 1.1107 5.12118 1 11.2257 -58.1545 -27.7672
57 1.3107 5.12118 1 11.0346 -54.4018 165.36
58 1.5107 5.12118 1 10.8438 -54.7579 -19.8595
59 1.7107 5.12118 1 10.6533 -52.8493 -164.316
60 1.9107 5.12118 1 10.4633 -51.4636 11.2271
61 0.110705 5.32118 1 12.1419 -51.3407 -157.904
62 0.310705 5.32118 1 11.9487 -54.1456 58.566
63 0.510705 5.32118 1 11.7558 -52.1453 -105.83
64 0.710705 5.32118 1 11.563 -53.9118 74.3021
65 0.910705 5.32118 1 11.3706 -55.4321 -69.7357
66 1.1107 5.32118 1 11.1784 -52.4702 118.835
67 1.3107 5.32118 1 10.9865 -53.5638 -32.8152
68 1.5107 5.32118 1 10.7949 -51.5956 152.22
69 1.7107 5.32118 1 10.6035 -50.9469 -37.7539
70 1.9107 5.32118 1 10.4126 -52.165 152.169
71 0.110705 5.52118 1 12.1015 -58.3518 -93.3403
72 0.310705 5.52118 1 11.9077 -55.8417 130.031
73 0.510705 5.52118 1 11.7141 -58.5921 -67.2246
74 0.710705 5.52118 1 11.5206 -68.0266 -86.0143
75 0.910705 5.52118 1 11.3275 -52.9692 42.0835
76 1.1107 5.52118 1 11.1345 -53.7346 -96.7861
77 1.3107 5.52118 1 10.9418 -51.7067 104.072
78 1.5107 5.52118 1 10.7494 -50.4034 -77.914
79 1.7107 5.52118 1 10.5573 -52.1 120.536
80 1.9107 5.52118 1 10.3654 -50.7849 -48.9707
81 0.110705 5.72118 1 12.0643 -54.5539 -39.5536
82 0.310705 5.72118 1 11.8699 -52.2802 146.187
83 0.510705 5.72118 1 11.6756 -53.2954 -28.3708
84 0.710705 5.72118 1 11.4816 -53.9781 -174.557
85 0.910705 5.72118 1 11.2877 -53.383 1.25152
86 1.1107 5.72118 1 11.0941 -62.3351 -50.0002
87 1.3107 5.72118 1 10.9007 -57.5644 150.584
88 1.5107 5.72118 1 10.7075 -62.1837 -19.3132
89 1.7107 5.72118 1 10.5146 -53.1864 -122.881
90 1.9107 5.72118 1 10.322 -51.1876 79.535
91 0.110705 5.92118 1 12.0303 -51.9304 72.545
92 0.310705 5.92118 1 11.8353 -52.4981 -96.0997
93 0.510705 5.92118 1 11.6405 -51.6322 122.242
94 0.710705 5.92118 1 11.4459 -53.0656 -68.5671
95 0.910705 5.92118 1 11.2514 -54.7436 132.554
96 1.1107 5.92118 1 11.0571 -52.319 -18.4807
97 1.3107 5.92118 1 10.8631 -52.2363 156.292
98 1.5107 5.92118 1 10.6692 -52.9985 6.50923
99 1.7107 5.92118 1 10.4756 -50.0583 -142.981
100 1.9107 5.92118 1 10.2823 -49.6808 55.1706
101 0.110705 6.12118 1 11.9996 -52.7569 -179.301
102 0.310705 6.12118 1 11.8041 -52.3914 21.7856
103 0.510705 6.12118 1 11.6087 -51.833 -151.368
104 0.710705 6.12118 1 11.4135 -53.6728 47.6901
105 0.910705 6.12118 1 11.2185 -53.3059 -97.7607
106 1.1107 6.12118 1 11.0237 -53.4137 105.215
107 1.3107 6.12118 1 10.829 -53.96 -21.2245
108 1.5107 6.12118 1 10.6346 -50.1533 162.851
109 1.7107 6.12118 1 10.4403 -48.9238 -5.518
110 1.9107 6.12118 1 10.2463 -49.4638 163.409
111 0.110705 6.32118 1 11.9721 -53.4671 -84.4009
112 0.310705 6.32118 1 11.7762 -51.9121 103.542
113 0.510705 6.32118 1 11.5803 -54.0531 -54.2401
114 0.710705 6.32118 1 11.3846 -54.0663 154.683
115 0.910705 6.32118 1 11.1891 -56.1285 -27.3524
116 1.1107 6.32118 1 10.9938 -57.6811 -139.624
117 1.3107 6.32118 1 10.7986 -54.2528 73.7955
118 1.5107 6.32118 1 10.6035 -50.451 -94.5243
119 1.7107 6.32118 1 10.4087 -49.4005 89.1127
120 1.9107 6.32118 1 10.2141 -50.4523 -86.5447
121 0.110705 6.52118 1 11.9479 -52.3149 -26.0179
122 0.310705 6.52118 1 11.7516 -54.1772 171.724
123 0.510705 6.52118 1 11.5553 -54.921 30.2045
124 0.710705 6.52118 1 11.3592 -52.9902 -151.212
125 0.910705 6.52118 1 11.1632 -56.2798 60.0131
126 1.1107 6.52118 1 10.9674 -57.811 -67.3484
127 1.3107 6.52118 1 10.7717 -54.0733 166.389
128 1.5107 6.52118 1 10.5762 -49.949 -8.1126
129 1.7107 6.52118 1 10.3809 -50.9388 169.151
130 1.9107 6.52118 1 10.1857 -54.7474 2.16998
131 0.110705 6.72118 1 11.927 -51.0793 44.7874
132 0.310705 6.72118 1 11.7303 -51.4065 -97.0755
133 0.510705 6.72118 1 11.5337 -49.3689 95.0873
134 0.710705 6.72118 1 11.3372 -50.0821 -68.0408
135 0.910705 6.72118 1 11.1409 -50.9499 132.595
136 1.1107 6.72118 1 10.9446 -55.1655 -19.3847
137 1.3107 6.72118 1 10.7485 -51.1626 -141.428
138 1.5107 6.72118 1 10.5526 -47.7288 42.8774
139 1.7107 6.72118 1 10.3568 -49.1557 -129.372
140 1.9107 6.72118 1 10.1612 -51.5975 78.3958
141 0.110705 6.92118 1 11.9095 -56.5132 103.553
142 0.310705 6.92118 1 11.7125 -53.2685 -41.6273
143 0.510705 6.92118 1 11.5155 -52.1012 156.9
144 0.710705 6.92118 1 11.3187 -50.4833 7.41934
145 0.910705 6.92118 1 11.1221 -52.6457 -163.939
146 1.1107 6.92118 1 10.9255 -54.3609 57.7911
147 1.3107 6.92118 1 10.729 -52.0228 -90.5582
148 1.5107 6.92118 1 10.5327 -50.8802 102.585
149 1.7107 6.92118 1 10.3366 -53.3671 -53.6654
150 1.9107 6.92118 1 10.1406 -52.3692 178.892
151 0.110705 7.12118 1 11.8952 -48.999 24.8145
152 0.310705 7.12118 1 11.698 -51.4716 -141.369
153 0.510705 7.12118 1 11.5008 -59.8389 48.6423
154 0.710705 7.12118 1 11.3038 -53.518 42.8306
155 0.910705 7.12118 1 11.1068 -48.1224 -122.226
156 1.1107 7.12118 1 10.91 -54.1749 71.7204
157 1.3107 7.12118 1 10.7132 -54.6663 -36.6354
158 1.5107 7.12118 1 10.5166 -51.7438 150.444
159 1.7107 7.12118 1 10.3202 -54.594 -4.61198
160 1.9107 7.12118 1 10.1238 -52.4208 -130.82
161 0.110705 7.32118 1 11.8843 -54.7297 -53.4893
162 0.310705 7.32118 1 11.6869 -55.807 160.06
163 0.510705 7.32118 1 11.4896 -53.6808 -15.7937
164 0.710705 7.32118 1 11.2923 -60.7392 166.223
165 0.910705 7.32118 1 11.0952 -59.3461 126.69
166 1.1107 7.32118 1 10.8981 -50.4842 -67.0996
167 1.3107 7.32118 1 10.7012 -49.4119 97.0953
168 1.5107 7.32118 1 10.5043 -55.7372 -124.316
169 1.7107 7.32118 1 10.3076 -52.7159 -44.6348
170 1.9107 7.32118 1 10.1111 -51.8394 153.113
171 0.110705 7.52118 1 11.8768 -60.1445 -112.151
172 0.310705 7.52118 1 11.6793 -60.3998 -164.204
173 0.510705 7.52118 1 11.4818 -54.895 12.4808
174 0.710705 7.52118 1 11.2844 -58.01 -170.682
175 0.910705 7.52118 1 11.0871 -64.4523 173.001
176 1.1107 7.52118 1 10.8899 -53.1472 -34.51
177 1.3107 7.52118 1 10.6928 -51.9275 122.059
178 1.5107 7.52118 1 10.4958 -57.4925 -59.2007
179 1.7107 7.52118 1 10.299 -60.2487 -152.23
180 1.9107 7.52118 1 10.1022 -55.2237 39.9626
181 0.110705 7.72118 1 11.8727 -60.0389 -109.478
182 0.310705 7.72118 1 11.675 -64.9436 -173.045
183 0.510705 7.72118 1 11.4775 -56.7878 32.2872
184 0.710705 7.72118 1 11.28 -56.8656 -166.807
185 0.910705 7.72118 1 11.0826 -75.2368 -162.062
186 1.1107 7.72118 1 10.8854 -56.0059 -23.8948
187 1.3107 7.72118 1 10.6882 -54.3963 135.035
188 1.5107 7.72118 1 10.4911 -57.8548 -67.2426
189 1.7107 7.72118 1 10.2942 -88.3917 121.311
190 1.9107 7.72118 1 10.0973 -59.8794 79.0999
