#Rx
# X(m), Y(m), Z(m), Distance(m), Power (dBm) Phase (deg)
1 4.88642 0.149652 1 9.07478 -60.0943 87.4819
2 5.08642 0.149652 1 9.17309 -52.7132 168.384
3 5.28642 0.149652 1 9.27468 -50.1654 -138.012
4 5.48642 0.149652 1 9.37943 -51.8884 -94.3734
5 5.68642 0.149652 1 9.48724 -53.6195 -57.8326
6 5.88642 0.149652 1 9.598 -57.3866 -26.8827
7 6.08642 0.149652 1 9.71162 -60.357 -7.00134
8 6.28642 0.149652 1 9.828 -64.6668 73.5835
9 6.48642 0.149652 1 9.94704 -59.1974 143.42
10 4.88642 0.349652 1 8.90485 -55.9985 -153.691
11 5.08642 0.349652 1 9.00501 -48.0951 -67.6692
12 5.28642 0.349652 1 9.10847 -49.6316 -6.30846
13 5.48642 0.349652 1 9.21511 -53.0222 25.9548
14 5.68642 0.349652 1 9.32482 -55.7922 58.4656
15 5.88642 0.349652 1 9.43749 -58.3691 97.9767
16 6.08642 0.349652 1 9.55302 -61.489 -179.336
17 6.28642 0.349652 1 9.67131 -57.8289 -113.846
18 6.48642 0.349652 1 9.79225 -57.7037 -115.787
19 4.88642 0.549652 1 8.73618 -54.8097 -4.78584
20 5.08642 0.549652 1 8.83826 -49.6886 50.7352
21 5.28642 0.549652 1 8.94365 -53.8883 98.6441
22 5.48642 0.549652 1 9.05223 -59.2367 124.928
23 5.68642 0.549652 1 9.16389 -63.6578 109.3
24 5.88642 0.549652 1 9.27852 -67.0698 148.811
25 6.08642 0.549652 1 9.396 -61.9608 -68.1053
26 6.28642 0.549652 1 9.51624 -58.0083 -41.7326
27 6.48642 0.549652 1 9.63913 -55.121 -43.8367
28 4.88642 0.749652 1 8.56887 -54.7124 132.635
29 5.08642 0.749652 1 8.67292 -52.8415 155.443
30 5.28642 0.749652 1 8.78029 -54.5174 172.062
31 5.48642 0.749652 1 8.89087 -54.8985 -152.805
32 5.68642 0.749652 1 9.00453 -57.564 -102.81
33 5.88642 0.749652 1 9.12116 -58.3546 -11.8883
34 6.08642 0.749652 1 9.24064 -56.0833 33.3784
35 6.28642 0.749652 1 9.36288 -53.7811 26.1142
36 6.48642 0.749652 1 9.48775 -51.813 23.1231
37 4.88642 0.949652 1 8.40298 -53.4874 -123.26
38 5.08642 0.949652 1 8.50906 -54.4426 -109.495
39 5.28642 0.949652 1 8.61848 -56.8721 -71.6103
40 5.48642 0.949652 1 8.7311 -63.1325 -21.1872
41 5.68642 0.949652 1 8.84681 -58.9334 70.5519
42 5.88642 0.949652 1 8.9655 -55.2957 120.26
43 6.08642 0.949652 1 9.08703 -55.6336 127.509
44 6.28642 0.949652 1 9.2113 -54.7377 96.046
45 6.48642 0.949652 1 9.33821 -52.5325 76.461
46 4.88642 1.14965 1 8.23861 -53.0457 -7.38182
47 5.08642 1.14965 1 8.34678 -53.2788 -12.6679
48 5.28642 1.14965 1 8.4583 -61.329 36.1391
49 5.48642 1.14965 1 8.57302 -68.144 130.709
50 5.68642 1.14965 1 8.69084 -59.3957 179.713
51 5.88642 1.14965 1 8.81163 -56.4011 168.394
52 6.08642 1.14965 1 8.93525 -51.2557 165.061
53 6.28642 1.14965 1 9.06161 -50.3556 165.656
54 6.48642 1.14965 1 9.19058 -53.048 149.249
55 4.88642 1.34965 1 8.07585 -51.8822 115.689
56 5.08642 1.34965 1 8.18617 -63.6361 99.615
57 5.28642 1.34965 1 8.29984 -66.9657 156.469
58 5.48642 1.34965 1 8.41673 -57.1641 -140.386
59 5.68642 1.34965 1 8.53671 -53.0801 -101.681
60 5.88642 1.34965 1 8.65964 -51.8248 -107.301
61 6.08642 1.34965 1 8.78541 -52.2647 -114.023
62 6.28642 1.34965 1 8.91389 -53.3325 -142.383
63 6.48642 1.34965 1 9.04496 -53.9439 -167.988
64 4.88642 1.54965 1 7.9148 -55.0487 -168.149
65 5.08642 1.54965 1 8.02733 -77.3512 -143.138
66 5.28642 1.54965 1 8.14322 -59.9431 -64.5625
67 5.48642 1.54965 1 8.26232 -53.1844 -32.9285
68 5.68642 1.54965 1 8.38451 -53.67 -30.3955
69 5.88642 1.54965 1 8.50964 -51.997 -52.2265
70 6.08642 1.54965 1 8.63759 -51.1313 -73.5412
71 6.28642 1.54965 1 8.76824 -51.8178 -81.7495
72 6.48642 1.54965 1 8.90146 -54.465 -103.188
73 4.88642 1.74965 1 7.75555 -54.0644 -97.2616
74 5.08642 1.74965 1 7.87036 -58.1861 -36.774
75 5.28642 1.74965 1 7.98853 -51.7797 30.9397
76 5.48642 1.74965 1 8.10991 -53.0424 48.0319
77 5.68642 1.74965 1 8.23436 -51.1647 16.5042
78 5.88642 1.74965 1 8.36173 -50.3594 11.121
79 6.08642 1.74965 1 8.49191 -53.7518 10.0212
80 6.28642 1.74965 1 8.62477 -56.47 -49.2452
81 6.48642 1.74965 1 8.76017 -56.8298 -81.5284
