#Rx
# X(m), Y(m), Z(m), Distance(m), Power (dBm) Phase (deg)
1 9.42507 3.65205 1 0 -46.1912 35.8768
2 9.62507 3.6517 1 0.2 -45.0205 -9.74325
3 9.82507 3.65136 1 0.4 -45.0488 -107.581
4 10.0251 3.65102 1 0.6 -54.4082 88.3899
5 10.2251 3.65067 1 0.8 -53.0421 -124.824
6 10.4251 3.65033 1 1 -60.4254 -96.6376
7 10.6251 3.64998 1 1.2 -59.3914 33.5272
8 10.8251 3.64964 1 1.4 -60.8264 102.589
9 11.0251 3.6493 1 1.6 -53.4878 -114.609
10 11.2251 3.64895 1 1.8 -55.5601 30.4939
11 11.4251 3.64861 1 2 -51.8495 137.855
12 11.6251 3.64826 1 2.2 -56.9865 -115.666
13 9.42472 3.45205 1 4.40907 -43.853 89.1716
14 9.62472 3.4517 1 4.60907 -46.0021 48.1648
15 9.82472 3.45136 1 4.80907 -46.3607 -15.513
16 10.0247 3.45102 1 5.00907 -49.4731 -126.292
17 10.2247 3.45067 1 5.20907 -68.0674 55.4331
18 10.4247 3.45033 1 5.40907 -52.0941 -129.571
19 10.6247 3.44998 1 5.60907 -58.8595 145.385
20 10.8247 3.44964 1 5.80907 -48.4235 -119.114
21 11.0247 3.4493 1 6.00907 -48.1249 61.7079
22 11.2247 3.44895 1 6.20907 -49.8143 165.23
23 11.4247 3.44861 1 6.40907 -47.9155 -77.7764
24 11.6247 3.44826 1 6.60907 -53.0989 -12.7145
25 9.42438 3.25205 1 8.81814 -47.0102 138.237
26 9.62438 3.2517 1 9.01814 -45.4733 114.063
27 9.82438 3.25136 1 9.21814 -47.0344 64.7422
28 10.0244 3.25102 1 9.41814 -52.4623 -5.15477
29 10.2244 3.25067 1 9.61814 -53.6356 -106.044
30 10.4244 3.25033 1 9.81814 -53.2988 18.2625
31 10.6244 3.24998 1 10.0181 -56.3444 -112.742
32 10.8244 3.24964 1 10.2181 -54.8614 95.3654
33 11.0244 3.2493 1 10.4181 -48.4788 -147.181
34 11.2244 3.24895 1 10.6181 -51.114 -42.9488
35 11.4244 3.24861 1 10.8181 -47.4296 63.9286
36 11.6244 3.24826 1 11.0181 -49.5839 135.937
37 9.42404 3.05205 1 13.2272 -49.6142 -144.533
38 9.62404 3.05171 1 13.4272 -50.6419 165.5
39 9.82404 3.05136 1 13.6272 -46.8061 116.081
40 10.024 3.05102 1 13.8272 -48.5801 72.749
41 10.224 3.05067 1 14.0272 -55.4231 -21.3449
42 10.424 3.05033 1 14.2272 -57.4286 178.552
43 10.624 3.04998 1 14.4272 -53.8355 -37.8237
44 10.824 3.04964 1 14.6272 -64.7283 34.199
45 9.42369 2.85205 1 16.0414 -49.288 -60.4127
46 9.62369 2.85171 1 16.2414 -47.4051 -111.579
47 9.82369 2.85136 1 16.4414 -48.1879 171.613
48 10.0237 2.85102 1 16.6414 -46.2989 131.899
49 10.2237 2.85067 1 16.8414 -50.1858 61.9363
50 10.4237 2.85033 1 17.0414 -50.9514 -30.7166
51 10.6237 2.84999 1 17.2414 -50.2648 75.9449
52 10.8237 2.84964 1 17.4414 -50.2755 -162.452
53 9.42335 2.65205 1 18.8556 -58.4339 -84.4552
54 9.62335 2.65171 1 19.0556 -46.0857 -80.3081
55 9.82335 2.65136 1 19.2556 -49.4598 -120.584
56 10.0233 2.65102 1 19.4556 -49.6206 -164.917
57 10.2233 2.65067 1 19.6556 -45.4248 125.914
58 10.4233 2.65033 1 19.8556 -46.2994 31.6462
59 10.6233 2.64999 1 20.0556 -50.1652 -123.777
60 10.8233 2.64964 1 20.2556 -49.8449 -24.2508
61 9.423 2.45205 1 21.6699 -51.5375 -70.9769
62 9.623 2.45171 1 21.8699 -56.5912 -80.515
63 9.823 2.45136 1 22.0699 -47.0775 -83.8794
64 10.023 2.45102 1 22.2699 -46.6909 -119.474
65 10.223 2.45067 1 22.4699 -45.5533 163.639
66 10.423 2.45033 1 22.6699 -46.4906 66.0556
67 10.623 2.44999 1 22.8699 -46.6086 0.340097
68 10.823 2.44964 1 23.0699 -53.1829 13.7828
69 9.42266 2.25205 1 24.4841 -55.6418 -126.143
70 9.62266 2.25171 1 24.6841 -48.6535 -86.8615
71 9.82266 2.25136 1 24.8841 -50.2542 -107.26
72 10.0227 2.25102 1 25.0841 -43.9653 -125.845
73 10.2227 2.25067 1 25.2841 -44.6012 -165.166
74 10.4227 2.25033 1 25.4841 -45.153 76.0628
75 10.6227 2.24999 1 25.6841 -48.206 -1.28761
76 10.8227 2.24964 1 25.8841 -54.3524 -91.2677
77 9.42232 2.05205 1 27.2983 -49.4572 -154.143
78 9.62232 2.05171 1 27.4983 -53.2164 -141.269
79 9.82232 2.05136 1 27.6983 -43.1456 -129.939
80 10.0223 2.05102 1 27.8983 -42.4841 -169.38
81 10.2223 2.05067 1 28.0983 -45.2737 151.688
82 10.4223 2.05033 1 28.2983 -50.0865 94.0927
83 10.6223 2.04999 1 28.4983 -52.4741 10.4755
84 10.8223 2.04964 1 28.6983 -56.0302 -117.568
85 9.42197 1.85205 1 30.1125 -50.2224 106.18
86 9.62197 1.85171 1 30.3125 -42.2363 179.057
87 9.82197 1.85136 1 30.5125 -44.2192 167.174
88 10.022 1.85102 1 30.7125 -41.3162 150.439
89 10.222 1.85067 1 30.9125 -51.2737 138.608
90 10.422 1.85033 1 31.1125 -45.2246 53.5174
91 10.622 1.84999 1 31.3125 -58.7198 35.2982
92 10.822 1.84964 1 31.5125 -53.8617 -93.1698
93 9.42163 1.65205 1 32.9267 -44.6352 56.0064
94 9.62163 1.65171 1 33.1267 -44.6228 77.1779
95 9.82163 1.65136 1 33.3267 -43.2632 96.7917
96 10.0216 1.65102 1 33.5267 -42.6072 105.986
97 10.2216 1.65067 1 33.7267 -41.0651 72.3149
98 10.4216 1.65033 1 33.9267 -51.4989 -15.2134
99 10.6216 1.64999 1 34.1267 -51.3275 -37.4886
100 10.8216 1.64964 1 34.3267 -56.0733 -116.299
101 11.0216 1.6493 1 34.5267 -49.2007 -161.056
102 11.2216 1.64895 1 34.7267 -59.2672 -58.9286
103 11.4216 1.64861 1 34.9267 -47.3411 -6.20375
104 11.6216 1.64827 1 35.1267 -42.8906 82.0262
105 9.42128 1.45205 1 37.3358 -45.7549 -69.7613
106 9.62128 1.45171 1 37.5358 -43.9672 -4.56214
107 9.82128 1.45136 1 37.7358 -43.948 11.8129
108 10.0213 1.45102 1 37.9358 -41.3891 17.7454
109 10.2213 1.45068 1 38.1358 -45.7098 -10.0981
110 10.4213 1.45033 1 38.3358 -43.1196 -1.98475
111 10.6213 1.44999 1 38.5358 -45.9637 -112.245
112 10.8213 1.44964 1 38.7358 -47.2718 179.282
113 11.0213 1.4493 1 38.9358 -46.548 38.9084
114 11.2213 1.44895 1 39.1358 -49.0339 156.096
115 11.4213 1.44861 1 39.3358 -50.8694 -66.2867
116 11.6213 1.44827 1 39.5358 -51.7394 154.207
117 9.42094 1.25205 1 41.7449 -50.763 177.275
118 9.62094 1.25171 1 41.9449 -47.9041 -140.482
119 9.82094 1.25136 1 42.1449 -44.7312 -104.271
120 10.0209 1.25102 1 42.3449 -46.0136 -80.3799
121 10.2209 1.25068 1 42.5449 -46.7402 -49.7383
122 10.4209 1.25033 1 42.7449 -42.5191 -113.55
123 10.6209 1.24999 1 42.9449 -55.1658 -92.8424
124 10.8209 1.24964 1 43.1449 -44.384 120.992
125 11.0209 1.2493 1 43.3449 -51.8053 29.7789
126 11.2209 1.24896 1 43.5449 -48.9955 -97.1152
127 11.4209 1.24861 1 43.7449 -48.4805 39.2135
128 11.6209 1.24827 1 43.9449 -46.5203 51.8617
129 9.4206 1.05205 1 46.1539 -56.5628 -14.0799
130 9.6206 1.05171 1 46.3539 -50.852 3.61357
131 9.82059 1.05136 1 46.5539 -49.7725 75.0617
132 10.0206 1.05102 1 46.7539 -49.6051 -175.142
133 10.2206 1.05068 1 46.9539 -50.004 179.808
134 10.4206 1.05033 1 47.1539 -57.3578 -153.043
135 10.6206 1.04999 1 47.3539 -46.0019 137.985
136 10.8206 1.04964 1 47.5539 -50.784 20.758
137 11.0206 1.0493 1 47.7539 -46.1085 -59.6238
138 11.2206 1.04896 1 47.9539 -46.0013 105.642
139 11.4206 1.04861 1 48.1539 -43.5939 -146.482
140 11.6206 1.04827 1 48.3539 -45.3749 -38.7495
141 9.42025 0.852052 1 50.563 -46.5692 75.259
142 9.62025 0.851708 1 50.763 -46.8092 148.321
143 9.82025 0.851364 1 50.963 -47.9188 162.191
144 10.0203 0.85102 1 51.163 -52.8969 -61.8628
145 10.2203 0.850676 1 51.363 -53.0307 116.371
146 10.4202 0.850332 1 51.563 -46.5895 70.531
147 10.6202 0.849988 1 51.763 -52.1571 -82.4311
148 10.8202 0.849644 1 51.963 -52.6506 106.914
149 11.0202 0.8493 1 52.163 -52.7041 -173.6
150 11.2202 0.848956 1 52.363 -63.2933 71.5909
151 11.4202 0.848612 1 52.563 -46.0768 5.06395
152 11.6202 0.848268 1 52.763 -48.2791 143.792
153 9.41991 0.652053 1 54.9721 -42.9861 -142.331
154 9.61991 0.651709 1 55.1721 -43.2308 -92.0022
155 9.81991 0.651365 1 55.3721 -44.3712 -46.4543
156 10.0199 0.65102 1 55.5721 -46.2239 32.3086
157 10.2199 0.650676 1 55.7721 -49.8048 -60.4607
158 10.4199 0.650332 1 55.9721 -58.9955 -76.7597
159 10.6199 0.649988 1 56.1721 -52.2766 59.0504
160 10.8199 0.649644 1 56.3721 -48.1208 -66.5028
161 11.0199 0.6493 1 56.5721 -57.8926 -21.1023
162 11.2199 0.648956 1 56.7721 -49.0696 117.404
163 11.4199 0.648612 1 56.9721 -49.2667 -153.971
164 11.6199 0.648268 1 57.1721 -54.3592 -133.037
165 9.41956 0.452053 1 59.3811 -41.7898 -51.0891
166 9.61956 0.451709 1 59.5811 -41.2322 6.87526
167 9.81956 0.451365 1 59.7811 -43.9272 98.3083
168 10.0196 0.451021 1 59.9811 -52.9642 125.968
169 10.2196 0.450677 1 60.1811 -49.7403 127.188
170 10.4196 0.450333 1 60.3811 -47.097 169.383
171 10.6196 0.449988 1 60.5811 -56.1872 117.539
172 10.8196 0.449644 1 60.7811 -43.8627 111.636
173 11.0196 0.4493 1 60.9811 -50.9579 2.12999
174 11.2196 0.448956 1 61.1811 -45.9383 -109.153
175 11.4196 0.448612 1 61.3811 -47.0784 2.23277
176 11.6196 0.448268 1 61.5811 -55.5557 23.7535
177 9.41922 0.252053 1 63.7902 -43.7853 7.24556
178 9.61922 0.251709 1 63.9902 -44.6983 84.8406
179 9.81922 0.251365 1 64.1902 -50.0564 171.05
180 10.0192 0.251021 1 64.3902 -44.8701 -172.839
181 10.2192 0.250677 1 64.5902 -64.8093 -170.951
182 10.4192 0.250333 1 64.7902 -48.0078 -79.4804
183 10.6192 0.249989 1 64.9902 -50.9624 -159.434
184 10.8192 0.249645 1 65.1902 -46.5536 -148.612
185 11.0192 0.249301 1 65.3902 -45.5034 54.0894
186 11.2192 0.248957 1 65.5902 -55.5245 76.2295
187 11.4192 0.248613 1 65.7902 -48.9548 148.026
188 11.6192 0.248269 1 65.9902 -49.3643 -130.057
