#Rx
# X(m), Y(m), Z(m), Distance(m), Power (dBm) Phase (deg)
1 9.79195 4.11542 1 10.1876 -56.8275 21.663
2 9.99195 4.11542 1 10.3703 -58.9861 -152.758
3 10.1919 4.11542 1 10.5536 -55.7123 77.4689
4 10.3919 4.11542 1 10.7376 -56.0799 -53.0444
5 10.5919 4.11542 1 10.9221 -55.7492 132.15
6 10.7919 4.11542 1 11.1071 -57.7997 -25.1382
7 10.9919 4.11542 1 11.2926 -58.0938 136.673
8 11.1919 4.11542 1 11.4787 -58.2764 -20.5688
9 11.3919 4.11542 1 11.6652 -49.0588 93.8508
10 11.5919 4.11542 1 11.8521 -48.9984 -87.5099
11 11.7919 4.11542 1 12.0395 -49.7082 82.8781
12 9.79195 4.31542 1 10.1152 -54.3048 -40.6505
13 9.99195 4.31542 1 10.2992 -55.0627 167.593
14 10.1919 4.31542 1 10.4838 -55.7179 -16.3238
15 10.3919 4.31542 1 10.6689 -56.8405 146.329
16 10.5919 4.31542 1 10.8546 -55.2126 -27.8535
17 10.7919 4.31542 1 11.0408 -56.1522 139.321
18 10.9919 4.31542 1 11.2274 -54.8708 -25.5163
19 11.1919 4.31542 1 11.4145 -54.9956 160.089
20 11.3919 4.31542 1 11.602 -54.7444 -25.5334
21 11.5919 4.31542 1 11.79 -56.9539 166.118
22 11.7919 4.31542 1 11.9783 -57.4908 -10.8941
23 9.79195 4.51542 1 10.0463 -47.3052 142.777
24 9.99195 4.51542 1 10.2316 -48.0169 -28.1888
25 10.1919 4.51542 1 10.4173 -49.6458 154.39
26 10.3919 4.51542 1 10.6036 -50.5607 -19.8783
27 10.5919 4.51542 1 10.7904 -52.5397 -145.96
28 10.7919 4.51542 1 10.9777 -55.7902 -17.9081
29 10.9919 4.51542 1 11.1654 -55.4557 155.223
30 11.1919 4.51542 1 11.3535 -55.8412 -31.8764
31 11.3919 4.51542 1 11.542 -56.823 167.938
32 11.5919 4.51542 1 11.7309 -56.1526 -58.6328
33 11.7919 4.51542 1 11.9202 -58.4208 122.792
34 9.79195 4.71542 1 9.98096 -46.0092 -48.7695
35 9.99195 4.71542 1 10.1674 -46.4012 137.275
36 10.1919 4.71542 1 10.3543 -52.6157 -17.6247
37 10.3919 4.71542 1 10.5417 -51.6077 171.64
38 10.5919 4.71542 1 10.7296 -52.891 -1.07897
39 10.7919 4.71542 1 10.9179 -51.5891 155.829
40 10.9919 4.71542 1 11.1066 -53.0302 -21.0861
41 11.1919 4.71542 1 11.2957 -61.8261 129.955
42 11.3919 4.71542 1 11.4852 -67.4151 -83.8791
43 11.5919 4.71542 1 11.675 -63.9158 70.0762
44 11.7919 4.71542 1 11.8651 -68.0693 -165.7
45 9.79195 4.91542 1 9.91919 -56.3093 128.941
46 9.99195 4.91542 1 10.1068 -52.4896 -46.7236
47 10.1919 4.91542 1 10.2948 -63.7251 15.6608
48 10.3919 4.91542 1 10.4833 -63.3004 136.461
49 10.5919 4.91542 1 10.6722 -58.1736 -58.4424
50 10.7919 4.91542 1 10.8615 -51.9917 -66.9458
51 10.9919 4.91542 1 11.0511 -52.2745 120.632
52 11.1919 4.91542 1 11.2412 -58.3513 -57.4225
53 11.3919 4.91542 1 11.4315 -69.7842 -66.5856
54 11.5919 4.91542 1 11.6222 -60.6838 83.5566
55 11.7919 4.91542 1 11.8132 -61.9907 -92.0988
56 9.79195 5.11542 1 9.8611 -49.8512 125.172
57 9.99195 5.11542 1 10.0498 -49.5043 -44.1328
58 10.1919 5.11542 1 10.2388 -50.1726 142.465
59 10.3919 5.11542 1 10.4283 -53.0183 -43.8184
60 10.5919 5.11542 1 10.6182 -50.7151 113.883
61 10.7919 5.11542 1 10.8084 -55.3393 88.7826
62 10.9919 5.11542 1 10.999 -58.1608 -72.9732
63 11.1919 5.11542 1 11.1899 -57.2239 130.178
64 11.3919 5.11542 1 11.3812 -59.7595 -27.6772
65 11.5919 5.11542 1 11.5727 -58.9601 -171.259
66 11.7919 5.11542 1 11.7645 -60.7274 8.63182
67 9.79195 5.31542 1 9.80675 -48.0757 -77.7966
68 9.99195 5.31542 1 9.99642 -47.462 104.247
69 10.1919 5.31542 1 10.1865 -46.8109 -81.912
70 10.3919 5.31542 1 10.3769 -47.6705 96.8186
71 10.5919 5.31542 1 10.5677 -49.4048 -101.061
72 10.7919 5.31542 1 10.7589 -60.7561 -125.98
73 10.9919 5.31542 1 10.9503 -57.1345 77.6852
74 11.1919 5.31542 1 11.1421 -55.9743 -69.9274
75 11.3919 5.31542 1 11.3341 -56.5043 111.694
76 11.5919 5.31542 1 11.5264 -56.0876 -50.4618
77 11.7919 5.31542 1 11.719 -57.926 147.367
78 9.79195 5.51542 1 9.75619 -48.762 69.2298
79 9.99195 5.51542 1 9.94683 -46.8143 -120.152
80 10.1919 5.51542 1 10.1378 -46.1706 57.075
81 10.3919 5.51542 1 10.3292 -46.9343 -128.107
82 10.5919 5.51542 1 10.5208 -47.5523 41.7117
83 10.7919 5.51542 1 10.7128 -62.9971 -18.1001
84 10.9919 5.51542 1 10.9051 -60.5022 -141.588
85 11.1919 5.51542 1 11.0976 -55.509 -7.60749
86 11.3919 5.51542 1 11.2904 -62.3024 -154.731
87 11.5919 5.51542 1 11.4834 -69.379 -22.683
88 11.7919 5.51542 1 11.6767 -72.6639 -80.0617
89 9.79195 5.71542 1 9.70949 -49.4518 -166.64
90 9.99195 5.71542 1 9.90103 -47.1335 13.9016
91 10.1919 5.71542 1 10.0929 -46.9732 -176.091
92 10.3919 5.71542 1 10.2851 -46.9876 13.8561
93 10.5919 5.71542 1 10.4775 -47.9481 179.825
94 10.7919 5.71542 1 10.6703 -56.0742 71.501
95 10.9919 5.71542 1 10.8633 -56.4929 -109.262
96 11.1919 5.71542 1 11.0566 -59.3404 117.958
97 11.3919 5.71542 1 11.2501 -60.8558 -38.1863
98 11.5919 5.71542 1 11.4438 -59.4092 169.807
99 11.7919 5.71542 1 11.6377 -67.3657 10.6429
100 9.79195 5.91542 1 9.6667 -50.3673 -0.688353
101 9.99195 5.91542 1 9.85907 -49.1218 148.114
102 10.1919 5.91542 1 10.0517 -45.7071 -43.8423
103 10.3919 5.91542 1 10.2447 -46.9734 127.44
104 10.5919 5.91542 1 10.4379 -47.8684 -65.8954
105 10.7919 5.91542 1 10.6314 -60.2482 -164.584
106 10.9919 5.91542 1 10.8251 -58.2355 17.3088
107 11.1919 5.91542 1 11.019 -55.3663 -148.91
108 11.3919 5.91542 1 11.2131 -56.7951 54.4594
109 11.5919 5.91542 1 11.4075 -60.5363 -135.563
110 11.7919 5.91542 1 11.602 -64.5316 66.6656
111 9.79195 6.11542 1 9.62788 -51.5531 127.05
112 9.99195 6.11542 1 9.82101 -51.2871 -86.559
113 10.1919 6.11542 1 10.0144 -48.9213 65.309
114 10.3919 6.11542 1 10.2081 -47.6234 -120.585
115 10.5919 6.11542 1 10.402 -48.8491 39.5282
116 10.7919 6.11542 1 10.5961 -60.022 -62.5845
117 10.9919 6.11542 1 10.7904 -59.6248 135.978
118 11.1919 6.11542 1 10.985 -58.0307 -43.4219
119 11.3919 6.11542 1 11.1797 -60.823 157.581
120 11.5919 6.11542 1 11.3746 -64.8192 13.579
121 11.7919 6.11542 1 11.5697 -75.0886 -96.3614
122 9.79195 6.31542 1 9.59307 -49.9213 -123.313
123 9.99195 6.31542 1 9.78688 -51.8775 27.1047
124 10.1919 6.31542 1 9.98095 -49.7641 174.756
125 10.3919 6.31542 1 10.1752 -49.333 -26.2402
126 10.5919 6.31542 1 10.3698 -48.874 134.488
127 10.7919 6.31542 1 10.5645 -65.3733 52.3194
128 10.9919 6.31542 1 10.7594 -66.2084 -146.428
129 11.1919 6.31542 1 10.9545 -63.2098 76.5925
130 11.3919 6.31542 1 11.1497 -63.582 -94.5191
131 11.5919 6.31542 1 11.3452 -68.8933 112.959
132 11.7919 6.31542 1 11.5408 -69.0778 1.54361
133 9.79195 6.51542 1 9.56231 -49.8423 -47.081
134 9.99195 6.51542 1 9.75674 -50.3621 112.005
135 10.1919 6.51542 1 9.95139 -49.3716 -101.711
136 10.3919 6.51542 1 10.1463 -47.9567 54.9025
137 10.5919 6.51542 1 10.3413 -47.742 -151.902
138 10.7919 6.51542 1 10.5365 -65.5161 36.3562
139 10.9919 6.51542 1 10.732 -70.7936 69.8556
140 11.1919 6.51542 1 10.9275 -70.4657 -150.542
141 11.3919 6.51542 1 11.1233 -61.8124 17.6657
142 11.5919 6.51542 1 11.3192 -60.8435 -168.637
143 11.7919 6.51542 1 11.5152 -64.0974 -3.32404
144 9.79195 6.71542 1 9.53566 -48.4777 19.9908
145 9.99195 6.71542 1 9.73062 -47.3789 -165.523
146 10.1919 6.71542 1 9.92578 -48.7664 -16.2105
147 10.3919 6.71542 1 10.1211 -49.0588 128.321
148 10.5919 6.71542 1 10.3167 -48.9266 -77.9914
149 10.7919 6.71542 1 10.5124 -62.061 74.2495
150 10.9919 6.71542 1 10.7082 -79.5267 -22.46
151 11.1919 6.71542 1 10.9042 -68.2231 -70.4674
152 11.3919 6.71542 1 11.1004 -65.2688 50.8083
153 11.5919 6.71542 1 11.2967 -64.084 -124.945
154 11.7919 6.71542 1 11.4931 -70.103 52.5153
155 9.79195 6.91542 1 9.51313 -53.3971 -14.3981
156 9.99195 6.91542 1 9.70855 -57.0001 -177.939
157 10.1919 6.91542 1 9.90415 -56.9388 -54.4798
158 10.3919 6.91542 1 10.0999 -52.0712 78.8743
159 10.5919 6.91542 1 10.2958 -53.7308 -91.8644
160 10.7919 6.91542 1 10.4919 -55.2415 -58.6889
161 10.9919 6.91542 1 10.6882 -52.386 109.965
162 11.1919 6.91542 1 10.8845 -50.1359 -78.8026
163 11.3919 6.91542 1 11.081 -52.6073 80.2139
164 11.5919 6.91542 1 11.2777 -52.8527 -125.52
165 11.7919 6.91542 1 11.4744 -54.7307 35.4215
166 9.79195 7.11542 1 9.49477 -49.6609 -42.6775
167 9.99195 7.11542 1 9.69055 -54.436 115.908
168 10.1919 7.11542 1 9.88651 -52.701 -97.925
169 10.3919 7.11542 1 10.0826 -49.9727 79.2288
170 10.5919 7.11542 1 10.2789 -61.1974 -83.2535
171 10.7919 7.11542 1 10.4753 -58.6965 -78.6468
172 10.9919 7.11542 1 10.6718 -54.3254 123.776
173 11.1919 7.11542 1 10.8685 -53.74 -47.9356
174 11.3919 7.11542 1 11.0653 -59.6815 120.234
175 11.5919 7.11542 1 11.2622 -63.8835 -88.9143
176 11.7919 7.11542 1 11.4592 -63.0571 84.9756
177 9.79195 7.31542 1 9.48059 -49.8255 12.716
178 9.99195 7.31542 1 9.67666 -54.8811 -173.955
179 10.1919 7.31542 1 9.87289 -54.9319 -52.4957
180 10.3919 7.31542 1 10.0693 -52.8833 121.467
181 10.5919 7.31542 1 10.2658 -57.9018 -48.5548
182 10.7919 7.31542 1 10.4624 -62.6866 -14.6827
183 10.9919 7.31542 1 10.6592 -50.5433 171.275
184 11.1919 7.31542 1 10.8561 -52.9394 -2.8807
185 11.3919 7.31542 1 11.0531 -56.6616 155.269
186 11.5919 7.31542 1 11.2502 -57.7357 -58.3896
187 11.7919 7.31542 1 11.4474 -55.3984 91.6588
188 9.79195 7.51542 1 9.47061 -52.2695 37.2882
189 9.99195 7.51542 1 9.66689 -59.86 -137.781
190 10.1919 7.51542 1 9.86331 -58.6561 -38.5298
191 10.3919 7.51542 1 10.0599 -57.1424 134.085
192 10.5919 7.51542 1 10.2566 -66.559 -67.9135
193 10.7919 7.51542 1 10.4534 -62.085 0.267486
194 10.9919 7.51542 1 10.6503 -53.0119 -153.645
195 11.1919 7.51542 1 10.8474 -51.6645 44.1823
196 11.3919 7.51542 1 11.0446 -56.1477 -126.983
197 11.5919 7.51542 1 11.2418 -63.2419 -4.62733
198 11.7919 7.51542 1 11.4392 -58.5318 124.453
199 9.79195 7.71542 1 9.46485 -58.3057 31.3929
200 9.99195 7.71542 1 9.66124 -67.3348 -148.644
201 10.1919 7.71542 1 9.85778 -58.4101 -37.7886
202 10.3919 7.71542 1 10.0545 -55.9531 162.406
203 10.5919 7.71542 1 10.2513 -60.3085 -11.2279
204 10.7919 7.71542 1 10.4482 -64.125 98.2985
205 10.9919 7.71542 1 10.6452 -55.5921 -101.562
206 11.1919 7.71542 1 10.8424 -52.9753 84.1853
207 11.3919 7.71542 1 11.0396 -57.4854 -61.2836
208 11.5919 7.71542 1 11.237 -65.3896 -95.9421
209 11.7919 7.71542 1 11.4344 -67.5498 116.571
