#Rx
# X(m), Y(m), Z(m), Distance(m), Power (dBm) Phase (deg)
1 2.98542 0.133894 1 8.10318 -52.8375 86.5197
2 3.18542 0.133894 1 8.06981 -56.2267 -83.1019
3 3.38542 0.133894 1 8.04128 -57.8195 93.7722
4 3.58542 0.133894 1 8.01764 -56.5742 -122.17
5 3.78542 0.133894 1 7.99894 -53.216 -23.3312
6 3.98542 0.133894 1 7.98519 -54.9153 43.8269
7 4.18542 0.133894 1 7.97645 -62.9005 46.4922
8 4.38542 0.133894 1 7.97271 -52.3782 8.98742
9 4.58542 0.133894 1 7.97398 -49.1434 3.02008
10 2.98542 0.333894 1 7.91169 -51.3522 -108.49
11 3.18542 0.333894 1 7.87751 -54.7641 81.2336
12 3.38542 0.333894 1 7.84828 -56.8599 -72.4041
13 3.58542 0.333894 1 7.82406 -56.0358 73.7759
14 3.78542 0.333894 1 7.80489 -53.5701 -174.262
15 3.98542 0.333894 1 7.79081 -54.332 -87.2516
16 4.18542 0.333894 1 7.78184 -58.3342 -41.8676
17 4.38542 0.333894 1 7.77801 -56.4813 -102.081
18 4.58542 0.333894 1 7.77932 -50.6684 -123.973
19 2.98542 0.533894 1 7.72063 -51.3053 59.7824
20 3.18542 0.533894 1 7.6856 -52.8597 -114.952
21 3.38542 0.533894 1 7.65564 -60.2528 102.228
22 3.58542 0.533894 1 7.63081 -55.8709 -77.3606
23 3.78542 0.533894 1 7.61115 -52.591 37.0823
24 3.98542 0.533894 1 7.59671 -52.8093 105.093
25 4.18542 0.533894 1 7.58751 -55.6813 117.769
26 4.38542 0.533894 1 7.58358 -49.8912 91.4295
27 4.58542 0.533894 1 7.58492 -45.7375 75.3225
28 2.98542 0.733894 1 7.53004 -52.2058 -134.02
29 3.18542 0.733894 1 7.49412 -51.7845 55.0817
30 3.38542 0.733894 1 7.46339 -59.1295 -68.5837
31 3.58542 0.733894 1 7.43791 -53.0717 108.751
32 3.78542 0.733894 1 7.41774 -51.2443 -129.597
33 3.98542 0.733894 1 7.40292 -50.4946 -51.6117
34 4.18542 0.733894 1 7.39349 -54.3052 -18.5035
35 4.38542 0.733894 1 7.38945 -49.4424 -77.769
36 4.58542 0.733894 1 7.39083 -44.4472 -90.3529
37 2.98542 0.933894 1 7.33994 -54.5781 35.6104
38 3.18542 0.933894 1 7.30309 -51.4231 -134.132
39 3.38542 0.933894 1 7.27155 -56.3543 73.1689
40 3.58542 0.933894 1 7.2454 -53.1424 -68.3242
41 3.78542 0.933894 1 7.2247 -50.809 62.6277
42 3.98542 0.933894 1 7.20948 -49.4424 132.739
43 4.18542 0.933894 1 7.19979 -52.1318 159.062
44 4.38542 0.933894 1 7.19565 -47.3827 111.69
45 4.58542 0.933894 1 7.19706 -42.6248 97.9219
46 2.98542 1.13389 1 7.15039 -61.6027 -165.882
47 3.18542 1.13389 1 7.11256 -51.2229 28.3926
48 3.38542 1.13389 1 7.08017 -55.7593 -117.379
49 3.58542 1.13389 1 7.05331 -50.7195 110.894
50 3.78542 1.13389 1 7.03204 -49.1531 -110.885
51 3.98542 1.13389 1 7.0164 -48.6152 -36.484
52 4.18542 1.13389 1 7.00645 -52.6061 0.977117
53 4.38542 1.13389 1 7.00219 -48.1419 -71.2997
54 4.58542 1.13389 1 7.00364 -42.8362 -79.7856
55 2.98542 1.33389 1 6.96142 -70.3238 24.3388
56 3.18542 1.33389 1 6.92256 -53.7584 -165.907
57 3.38542 1.33389 1 6.88928 -51.8561 40.6006
58 3.58542 1.33389 1 6.86167 -51.9167 -89.3015
59 3.78542 1.33389 1 6.8398 -49.9697 71.8858
60 3.98542 1.33389 1 6.82373 -49.3461 150.118
61 4.18542 1.33389 1 6.81349 -52.3274 -170.425
62 4.38542 1.33389 1 6.80911 -49.0902 124.927
63 4.58542 1.33389 1 6.81061 -42.8165 110.43
64 2.98542 1.53389 1 6.77309 -70.4741 -165.907
65 3.18542 1.53389 1 6.73313 -58.8113 -19.3671
66 3.38542 1.53389 1 6.69892 -52.0375 -161.519
67 3.58542 1.53389 1 6.67052 -51 71.2697
68 3.78542 1.53389 1 6.64802 -48.997 -122.891
69 3.98542 1.53389 1 6.63148 -49.5492 -21.75
70 4.18542 1.53389 1 6.62095 -52.5725 39.9926
71 4.38542 1.53389 1 6.61644 -52.4134 -57.7769
72 4.58542 1.53389 1 6.61798 -43.7421 -70.9668
73 2.98542 1.73389 1 6.58544 -65.9127 -18.6253
74 3.18542 1.73389 1 6.54434 -67.9876 74.3072
75 3.38542 1.73389 1 6.50913 -54.385 4.87796
76 3.58542 1.73389 1 6.4799 -49.9155 -145.684
77 3.78542 1.73389 1 6.45674 -49.8315 44.475
78 3.98542 1.73389 1 6.43971 -49.7819 172.318
79 4.18542 1.73389 1 6.42886 -51.8974 -128.633
80 4.38542 1.73389 1 6.42422 -52.1561 167.669
81 4.58542 1.73389 1 6.42581 -44.5983 129.872
