#Rx
# X(m), Y(m), Z(m), Distance(m), Power (dBm) Phase (deg)
1 6.94247 0.172736 1 10.2105 -53.2136 102.842
2 7.14247 0.172736 1 10.3378 -53.3631 90.3507
3 7.34247 0.172736 1 10.4674 -55.872 68.4496
4 7.54247 0.172736 1 10.5992 -54.744 35.1128
5 7.74247 0.172736 1 10.7331 -54.3832 17.024
6 7.94247 0.172736 1 10.869 -56.8957 -9.8514
7 8.14247 0.172736 1 11.0069 -58.9485 -38.9817
8 8.34247 0.172736 1 11.1467 -59.6867 -54.7402
9 8.54247 0.172736 1 11.2883 -58.349 -76.4094
10 8.74247 0.172736 1 11.4316 -58.3073 -120.728
11 6.94247 0.372736 1 10.0602 -51.6638 172.975
12 7.14247 0.372736 1 10.1894 -53.2541 153.158
13 7.34247 0.372736 1 10.3209 -54.8031 122.064
14 7.54247 0.372736 1 10.4545 -55.2475 94.5807
15 7.74247 0.372736 1 10.5902 -54.8416 61.7559
16 7.94247 0.372736 1 10.728 -57.4738 39.4775
17 8.14247 0.372736 1 10.8677 -59.0532 19.1672
18 8.34247 0.372736 1 11.0092 -59.0466 6.5557
19 8.54247 0.372736 1 11.1525 -57.702 -43.4273
20 8.74247 0.372736 1 11.2976 -58.3807 -144.354
21 6.94247 0.572736 1 9.91168 -53.2955 -142.046
22 7.14247 0.572736 1 10.0428 -54.9959 -157.733
23 7.34247 0.572736 1 10.1762 -54.1173 167.213
24 7.54247 0.572736 1 10.3117 -55.3465 143.25
25 7.74247 0.572736 1 10.4493 -60.3106 121.816
26 7.94247 0.572736 1 10.5888 -60.2453 97.7694
27 8.14247 0.572736 1 10.7303 -59.7463 88.8995
28 8.34247 0.572736 1 10.8736 -57.9862 43.7537
29 8.54247 0.572736 1 11.0187 -58.5257 -63.493
30 8.74247 0.572736 1 11.1655 -63.0808 38.2059
31 6.94247 0.772736 1 9.765 -54.7437 -67.2346
32 7.14247 0.772736 1 9.89806 -54.9063 -108.176
33 7.34247 0.772736 1 10.0333 -56.8325 -122.934
34 7.54247 0.772736 1 10.1708 -60.1466 -155.464
35 7.74247 0.772736 1 10.3102 -61.933 -176.579
36 7.94247 0.772736 1 10.4517 -58.407 178.695
37 8.14247 0.772736 1 10.595 -56.1046 135.355
38 8.34247 0.772736 1 10.7401 -57.3871 8.96062
39 8.54247 0.772736 1 10.887 -59.7715 115.842
40 8.74247 0.772736 1 11.0355 -58.5794 62.0005
41 6.94247 0.972736 1 9.62024 -54.481 -27.9417
42 7.14247 0.972736 1 9.75528 -55.734 -48.0623
43 7.34247 0.972736 1 9.89252 -60.1684 -71.8482
44 7.54247 0.972736 1 10.0319 -61.7666 -73.9071
45 7.74247 0.972736 1 10.1732 -56.8696 -92.9489
46 7.94247 0.972736 1 10.3165 -56.8995 -142.846
47 8.14247 0.972736 1 10.4617 -58.2382 -106.457
48 8.34247 0.972736 1 10.6087 -62.6478 -133.189
49 8.54247 0.972736 1 10.7573 -58.5909 128.829
50 8.74247 0.972736 1 10.9076 -60.0372 55.6092
51 6.94247 1.17274 1 9.4775 -55.9352 37.4004
52 7.14247 1.17274 1 9.61454 -62.6908 21.6686
53 7.34247 1.17274 1 9.75376 -67.1765 -5.95403
54 7.54247 1.17274 1 9.89506 -58.5312 -39.7349
55 7.74247 1.17274 1 10.0384 -56.5797 -84.562
56 7.94247 1.17274 1 10.1836 -58.3086 -37.9247
57 8.14247 1.17274 1 10.3306 -61.8119 -37.4194
58 8.34247 1.17274 1 10.4794 -59.8514 -149.21
59 8.54247 1.17274 1 10.6299 -59.3981 109.531
60 8.74247 1.17274 1 10.782 -60.8322 15.9799
61 6.94247 1.37274 1 9.33685 -60.354 71.9905
62 7.14247 1.37274 1 9.47593 -59.9328 88.9372
63 7.34247 1.37274 1 9.61715 -58.2414 62.8253
64 7.54247 1.37274 1 9.76043 -56.8336 -4.42076
65 7.74247 1.37274 1 9.90568 -56.3534 55.8089
66 7.94247 1.37274 1 10.0528 -54.398 12.7897
67 8.14247 1.37274 1 10.2017 -59.7702 -71.671
68 8.34247 1.37274 1 10.3524 -61.562 -179.065
69 8.54247 1.37274 1 10.5047 -64.0852 72.2055
70 8.74247 1.37274 1 10.6585 -64.9147 -53.9009
71 6.94247 1.57274 1 9.1984 -63.013 -157.035
72 7.14247 1.57274 1 9.33954 -59.9789 123.305
73 7.34247 1.57274 1 9.4828 -54.0416 70.8791
74 7.54247 1.57274 1 9.62808 -56.4273 134.978
75 7.74247 1.57274 1 9.77529 -53.5953 85.9044
76 7.94247 1.57274 1 9.92435 -63.0993 20.5533
77 8.14247 1.57274 1 10.0752 -83.9539 -157.63
78 8.34247 1.57274 1 10.2277 -66.0881 148.856
79 8.54247 1.57274 1 10.3818 -66.133 4.99768
80 8.74247 1.57274 1 10.5375 -72.5448 63.4694
81 6.94247 1.77274 1 9.06226 -55.9279 -155.354
82 7.14247 1.77274 1 9.20548 -53.1033 159.238
83 7.34247 1.77274 1 9.35079 -51.7578 -119.044
84 7.54247 1.77274 1 9.49809 -54.1727 167.36
85 7.74247 1.77274 1 9.64729 -67.53 69.9514
86 7.94247 1.77274 1 9.79829 -67.6515 -59.6627
87 8.14247 1.77274 1 9.95103 -83.2072 -116.99
88 8.34247 1.77274 1 10.1054 -59.759 9.49954
89 8.54247 1.77274 1 10.2614 -73.2705 130.997
90 8.74247 1.77274 1 10.4188 -73.3226 125.95
