#Rx
# X(m), Y(m), Z(m), Distance(m), Power (dBm) Phase (deg)
1 9.42507 3.65205 1 0 -51.7908 -85.1876
2 9.62507 3.6517 1 0.2 -54.6956 158.764
3 9.82507 3.65136 1 0.4 -58.5195 138.504
4 10.0251 3.65102 1 0.6 -55.2695 41.1736
5 10.2251 3.65067 1 0.8 -57.5207 -69.2282
6 10.4251 3.65033 1 1 -59.4164 -148.291
7 10.6251 3.64998 1 1.2 -61.7145 -112.333
8 10.8251 3.64964 1 1.4 -60.2804 94.7009
9 11.0251 3.6493 1 1.6 -61.6083 -36.158
10 11.2251 3.64895 1 1.8 -71.597 178.477
11 11.4251 3.64861 1 2 -63.3659 96.7799
12 11.6251 3.64826 1 2.2 -60.5603 -128.815
13 9.42472 3.45205 1 4.40907 -57.0883 -136.801
14 9.62472 3.4517 1 4.60907 -52.4437 -159.643
15 9.82472 3.45136 1 4.80907 -59.1171 108.315
16 10.0247 3.45102 1 5.00907 -55.6175 60.19
17 10.2247 3.45067 1 5.20907 -58.5308 -36.4846
18 10.4247 3.45033 1 5.40907 -58.4726 -103.719
19 10.6247 3.44998 1 5.60907 -61.2165 150.803
20 10.8247 3.44964 1 5.80907 -59.9122 162.208
21 11.0247 3.4493 1 6.00907 -58.6268 49.0993
22 11.2247 3.44895 1 6.20907 -58.7023 -114.393
23 11.4247 3.44861 1 6.40907 -65.5502 105.447
24 11.6247 3.44826 1 6.60907 -64.1056 64.6774
25 9.42438 3.25205 1 8.81814 -53.8532 -148.382
26 9.62438 3.2517 1 9.01814 -52.1572 -170.148
27 9.82438 3.25136 1 9.21814 -56.8695 105.196
28 10.0244 3.25102 1 9.41814 -56.3378 64.0479
29 10.2244 3.25067 1 9.61814 -56.8947 -11.4992
30 10.4244 3.25033 1 9.81814 -60.4873 -85.0382
31 10.6244 3.24998 1 10.0181 -58.9757 -166.117
32 10.8244 3.24964 1 10.2181 -59.3318 79.2242
33 11.0244 3.2493 1 10.4181 -52.2102 -77.2897
34 11.2244 3.24895 1 10.6181 -71.1977 22.4767
35 11.4244 3.24861 1 10.8181 -60.1741 -145.829
36 11.6244 3.24826 1 11.0181 -58.6495 93.3445
37 9.42404 3.05205 1 13.2272 -53.0118 -156.358
38 9.62404 3.05171 1 13.4272 -56.2012 162.614
39 9.82404 3.05136 1 13.6272 -53.1961 102.852
40 10.024 3.05102 1 13.8272 -55.8538 62.9335
41 10.224 3.05067 1 14.0272 -57.8867 -16.5521
42 10.424 3.05033 1 14.2272 -56.8577 -89.3531
43 10.624 3.04998 1 14.4272 -57.5895 -173.226
44 10.824 3.04964 1 14.6272 -59.1902 97.6416
45 9.42369 2.85205 1 16.0414 -53.5648 175.771
46 9.62369 2.85171 1 16.2414 -54.1854 106.768
47 9.82369 2.85136 1 16.4414 -54.8505 103.457
48 10.0237 2.85102 1 16.6414 -54.1346 32.2529
49 10.2237 2.85067 1 16.8414 -57.0065 -15.9977
50 10.4237 2.85033 1 17.0414 -55.9194 -109.288
51 10.6237 2.84999 1 17.2414 -60.9855 -148.885
52 10.8237 2.84964 1 17.4414 -58.3316 162.773
53 9.42335 2.65205 1 18.8556 -52.9056 110.19
54 9.62335 2.65171 1 19.0556 -57.0459 104.089
55 9.82335 2.65136 1 19.2556 -53.8375 53.295
56 10.0233 2.65102 1 19.4556 -55.0362 13.6961
57 10.2233 2.65067 1 19.6556 -54.2896 -47.7025
58 10.4233 2.65033 1 19.8556 -58.0341 -83.8861
59 10.6233 2.64999 1 20.0556 -57.8386 -162.046
60 10.8233 2.64964 1 20.2556 -56.5025 120.897
61 9.423 2.45205 1 21.6699 -56.4317 65.7141
62 9.623 2.45171 1 21.8699 -56.6592 40.7831
63 9.823 2.45136 1 22.0699 -52.9703 20.9762
64 10.023 2.45102 1 22.2699 -54.739 -26.0692
65 10.223 2.45067 1 22.4699 -55.0888 -64.6526
66 10.423 2.45033 1 22.6699 -57.6961 -115.218
67 10.623 2.44999 1 22.8699 -54.8875 -176.591
68 10.823 2.44964 1 23.0699 -59.8902 105.921
69 9.42266 2.25205 1 24.4841 -55.7673 1.08998
70 9.62266 2.25171 1 24.6841 -55.1235 -10.7499
71 9.82266 2.25136 1 24.8841 -54.4901 -24.8752
72 10.0227 2.25102 1 25.0841 -54.7906 -58.6429
73 10.2227 2.25067 1 25.2841 -57.0423 -87.9306
74 10.4227 2.25033 1 25.4841 -55.5033 -157.189
75 10.6227 2.24999 1 25.6841 -54.3394 177.08
76 10.8227 2.24964 1 25.8841 -56.7302 118.225
77 9.42232 2.05205 1 27.2983 -56.917 -57.9861
78 9.62232 2.05171 1 27.4983 -55.6978 -55.1316
79 9.82232 2.05136 1 27.6983 -55.3472 -93.1263
80 10.0223 2.05102 1 27.8983 -55.9301 -101.447
81 10.2223 2.05067 1 28.0983 -54.673 -147.508
82 10.4223 2.05033 1 28.2983 -54.5213 -174.465
83 10.6223 2.04999 1 28.4983 -56.0215 146.103
84 10.8223 2.04964 1 28.6983 -56.5434 90.9709
85 9.42197 1.85205 1 30.1125 -54.9497 -139.253
86 9.62197 1.85171 1 30.3125 -56.5492 -150.477
87 9.82197 1.85136 1 30.5125 -55.3917 -129.446
88 10.022 1.85102 1 30.7125 -54.8184 -171.663
89 10.222 1.85067 1 30.9125 -55.2705 172.574
90 10.422 1.85033 1 31.1125 -54.1722 152.647
91 10.622 1.84999 1 31.3125 -56.7925 105.072
92 10.822 1.84964 1 31.5125 -55.6436 63.1214
93 9.42163 1.65205 1 32.9267 -54.712 147.152
94 9.62163 1.65171 1 33.1267 -54.8441 145.231
95 9.82163 1.65136 1 33.3267 -56.6643 137.553
96 10.0216 1.65102 1 33.5267 -56.5712 161.16
97 10.2216 1.65067 1 33.7267 -55.0548 111.473
98 10.4216 1.65033 1 33.9267 -56.7015 94.575
99 10.6216 1.64999 1 34.1267 -54.2961 79.8702
100 10.8216 1.64964 1 34.3267 -56.9271 29.2086
101 11.0216 1.6493 1 34.5267 -57.3243 -22.6329
102 11.2216 1.64895 1 34.7267 -56.688 -65.2107
103 11.4216 1.64861 1 34.9267 -80.6935 -92.3608
104 11.6216 1.64827 1 35.1267 -78.5051 150.561
105 9.42128 1.45205 1 37.3358 -68.352 64.5584
106 9.62128 1.45171 1 37.5358 -56.1215 86.8473
107 9.82128 1.45136 1 37.7358 -55.7369 74.9374
108 10.0213 1.45102 1 37.9358 -57.8146 71.5389
109 10.2213 1.45068 1 38.1358 -56.2263 65.6693
110 10.4213 1.45033 1 38.3358 -54.0901 53.3854
111 10.6213 1.44999 1 38.5358 -58.3787 15.2226
112 10.8213 1.44964 1 38.7358 -55.2147 3.98011
113 11.0213 1.4493 1 38.9358 -55.1151 -60.7666
114 11.2213 1.44895 1 39.1358 -56.5126 -104.271
115 11.4213 1.44861 1 39.3358 -57.224 -143.638
116 11.6213 1.44827 1 39.5358 -73.335 -107.216
117 9.42094 1.25205 1 41.7449 -72.4085 131.781
118 9.62094 1.25171 1 41.9449 -55.9412 2.59993
119 9.82094 1.25136 1 42.1449 -56.996 -4.02026
120 10.0209 1.25102 1 42.3449 -54.1912 -1.66387
121 10.2209 1.25068 1 42.5449 -56.4876 5.94533
122 10.4209 1.25033 1 42.7449 -57.8993 -5.74385
123 10.6209 1.24999 1 42.9449 -57.7446 -29.7242
124 10.8209 1.24964 1 43.1449 -57.3342 -79.1503
125 11.0209 1.2493 1 43.3449 -57.5897 -70.6585
126 11.2209 1.24896 1 43.5449 -54.4747 -136.368
127 11.4209 1.24861 1 43.7449 -57.1519 169.056
128 11.6209 1.24827 1 43.9449 -57.8631 140.262
129 9.4206 1.05205 1 46.1539 -72.9592 81.3956
130 9.6206 1.05171 1 46.3539 -71.5891 -168.542
131 9.82059 1.05136 1 46.5539 -55.4423 -72.6461
132 10.0206 1.05102 1 46.7539 -55.1954 -73.0225
133 10.2206 1.05068 1 46.9539 -55.4098 -66.5515
134 10.4206 1.05033 1 47.1539 -57.6662 -85.6859
135 10.6206 1.04999 1 47.3539 -57.1577 -95.6718
136 10.8206 1.04964 1 47.5539 -56.7811 -103.57
137 11.0206 1.0493 1 47.7539 -55.607 -139.449
138 11.2206 1.04896 1 47.9539 -60.5293 -159.213
139 11.4206 1.04861 1 48.1539 -55.3424 156.412
140 11.6206 1.04827 1 48.3539 -56.7436 79.8982
141 9.42025 0.852052 1 50.563 -78.3734 -158.903
142 9.62025 0.851708 1 50.763 -77.9828 112.51
143 9.82025 0.851364 1 50.963 -82.6577 -108.955
144 10.0203 0.85102 1 51.163 -57.7167 -142.257
145 10.2203 0.850676 1 51.363 -55.9507 -151.774
146 10.4202 0.850332 1 51.563 -56.3584 -140.719
147 10.6202 0.849988 1 51.763 -57.3828 -165.22
148 10.8202 0.849644 1 51.963 -57.8442 -170.899
149 11.0202 0.8493 1 52.163 -58.5703 169.292
150 11.2202 0.848956 1 52.363 -57.3127 143.625
151 11.4202 0.848612 1 52.563 -57.6598 96.9192
152 11.6202 0.848268 1 52.763 -56.8706 79.1093
153 9.41991 0.652053 1 54.9721 -74.9583 24.5326
154 9.61991 0.651709 1 55.1721 -73.266 -120.851
155 9.81991 0.651365 1 55.3721 -79.0815 74.0889
156 10.0199 0.65102 1 55.5721 -76.9003 142.626
157 10.2199 0.650676 1 55.7721 -57.6739 136.564
158 10.4199 0.650332 1 55.9721 -55.5688 138.678
159 10.6199 0.649988 1 56.1721 -58.1124 142.333
160 10.8199 0.649644 1 56.3721 -58.154 122.19
161 11.0199 0.6493 1 56.5721 -59.3851 105.899
162 11.2199 0.648956 1 56.7721 -56.7349 79.2863
163 11.4199 0.648612 1 56.9721 -56.364 70.0446
164 11.6199 0.648268 1 57.1721 -56.7015 15.535
165 9.41956 0.452053 1 59.3811 -71.8591 -35.1484
166 9.61956 0.451709 1 59.5811 -83.8383 -127.881
167 9.81956 0.451365 1 59.7811 -76.0143 147.684
168 10.0196 0.451021 1 59.9811 -74.7197 10.6185
169 10.2196 0.450677 1 60.1811 -57.6331 61.3099
170 10.4196 0.450333 1 60.3811 -57.2783 53.2414
171 10.6196 0.449988 1 60.5811 -56.4267 56.7623
172 10.8196 0.449644 1 60.7811 -57.8233 53.0004
173 11.0196 0.4493 1 60.9811 -57.3184 35.4552
174 11.2196 0.448956 1 61.1811 -58.6719 40.1901
175 11.4196 0.448612 1 61.3811 -57.5565 2.49295
176 11.6196 0.448268 1 61.5811 -56.6949 -12.4055
177 9.41922 0.252053 1 63.7902 -82.7231 -168.174
178 9.61922 0.251709 1 63.9902 -82.6595 -6.61141
179 9.81922 0.251365 1 64.1902 -81.2375 149.95
180 10.0192 0.251021 1 64.3902 -74.8777 107.283
181 10.2192 0.250677 1 64.5902 -80.2064 9.7932
182 10.4192 0.250333 1 64.7902 -58.2329 -27.6211
183 10.6192 0.249989 1 64.9902 -57.7564 -24.4651
184 10.8192 0.249645 1 65.1902 -56.6212 -26.711
185 11.0192 0.249301 1 65.3902 -58.3217 -22.9838
186 11.2192 0.248957 1 65.5902 -58.4396 -45.6093
187 11.4192 0.248613 1 65.7902 -57.8955 -60.6236
188 11.6192 0.248269 1 65.9902 -56.6598 -81.2795
