#Rx
# X(m), Y(m), Z(m), Distance(m), Power (dBm) Phase (deg)
1 9.42507 3.65205 1 0 -61.3395 36.2515
2 9.62507 3.6517 1 0.2 -60.6079 69.535
3 9.82507 3.65136 1 0.4 -50.1552 101.768
4 10.0251 3.65102 1 0.6 -52.0845 -99.4715
5 10.2251 3.65067 1 0.8 -48.7593 61.882
6 10.4251 3.65033 1 1 -63.1124 -68.281
7 10.6251 3.64998 1 1.2 -50.9616 26.0107
8 10.8251 3.64964 1 1.4 -45.1897 -157.804
9 11.0251 3.6493 1 1.6 -50.0916 -2.69069
10 11.2251 3.64895 1 1.8 -51.5992 178.149
11 11.4251 3.64861 1 2 -49.6421 12.4893
12 11.6251 3.64826 1 2.2 -50.5659 -172.771
13 9.42472 3.45205 1 4.40907 -54.8446 -88.2807
14 9.62472 3.4517 1 4.60907 -47.754 132.003
15 9.82472 3.45136 1 4.80907 -51.1907 2.87924
16 10.0247 3.45102 1 5.00907 -46.1291 178.663
17 10.2247 3.45067 1 5.20907 -48.465 31.103
18 10.4247 3.45033 1 5.40907 -51.2666 -133.137
19 10.6247 3.44998 1 5.60907 -48.5143 3.09771
20 10.8247 3.44964 1 5.80907 -46.1431 -163.523
21 11.0247 3.4493 1 6.00907 -48.9959 30.9381
22 11.2247 3.44895 1 6.20907 -51.2689 -170.095
23 11.4247 3.44861 1 6.40907 -51.6021 21.4935
24 11.6247 3.44826 1 6.60907 -50.9771 156.612
25 9.42438 3.25205 1 8.81814 -46.384 -174.166
26 9.62438 3.2517 1 9.01814 -46.0082 15.8838
27 9.82438 3.25136 1 9.21814 -47.9854 -104.187
28 10.0244 3.25102 1 9.41814 -44.1881 113.033
29 10.2244 3.25067 1 9.61814 -45.742 -51.5697
30 10.4244 3.25033 1 9.81814 -45.1716 102.995
31 10.6244 3.24998 1 10.0181 -47.0037 -64.9545
32 10.8244 3.24964 1 10.2181 -46.6177 127.703
33 11.0244 3.2493 1 10.4181 -47.1241 -58.5235
34 11.2244 3.24895 1 10.6181 -48.1669 117.267
35 11.4244 3.24861 1 10.8181 -53.5308 -85.8303
36 11.6244 3.24826 1 11.0181 -51.0974 77.1137
37 9.42404 3.05205 1 13.2272 -47.504 75.9796
38 9.62404 3.05171 1 13.4272 -40.3779 -64.5876
39 9.82404 3.05136 1 13.6272 -43.7772 158.598
40 10.024 3.05102 1 13.8272 -48.9466 2.44647
41 10.224 3.05067 1 14.0272 -49.9258 -162.761
42 10.424 3.05033 1 14.2272 -43.9649 31.741
43 10.624 3.04998 1 14.4272 -45.5785 -133.387
44 10.824 3.04964 1 14.6272 -43.579 64.1353
45 9.42369 2.85205 1 16.0414 -42.6457 -64.9955
46 9.62369 2.85171 1 16.2414 -41.5341 -169.979
47 9.82369 2.85136 1 16.4414 -46.7551 47.1392
48 10.0237 2.85102 1 16.6414 -47.8348 -167.352
49 10.2237 2.85067 1 16.8414 -44.4229 62.7644
50 10.4237 2.85033 1 17.0414 -42.8722 -86.3163
51 10.6237 2.84999 1 17.2414 -44.7998 106.707
52 10.8237 2.84964 1 17.4414 -43.6611 -61.0184
53 9.42335 2.65205 1 18.8556 -49.4028 153.684
54 9.62335 2.65171 1 19.0556 -51.171 87.4721
55 9.82335 2.65136 1 19.2556 -53.5705 -118.399
56 10.0233 2.65102 1 19.4556 -44.4424 68.8894
57 10.2233 2.65067 1 19.6556 -42.6671 -74.3838
58 10.4233 2.65033 1 19.8556 -43.6522 140.293
59 10.6233 2.64999 1 20.0556 -46.0009 -45.0216
60 10.8233 2.64964 1 20.2556 -49.0002 147.157
61 9.423 2.45205 1 21.6699 -48.9423 -53.6511
62 9.623 2.45171 1 21.8699 -46.9324 164.031
63 9.823 2.45136 1 22.0699 -48.4454 10.6076
64 10.023 2.45102 1 22.2699 -47.5052 -115.107
65 10.223 2.45067 1 22.4699 -50.9448 135.004
66 10.423 2.45033 1 22.6699 -46.8305 10.9271
67 10.623 2.44999 1 22.8699 -46.9847 -177.411
68 10.823 2.44964 1 23.0699 -46.7898 20.1324
69 9.42266 2.25205 1 24.4841 -50.2511 179.595
70 9.62266 2.25171 1 24.6841 -47.1487 9.85251
71 9.82266 2.25136 1 24.8841 -46.4167 172.585
72 10.0227 2.25102 1 25.0841 -50.2408 26.5598
73 10.2227 2.25067 1 25.2841 -64.661 17.4586
74 10.4227 2.25033 1 25.4841 -52.1107 -98.522
75 10.6227 2.24999 1 25.6841 -48.1746 44.8475
76 10.8227 2.24964 1 25.8841 -47.0976 -142.539
77 9.42232 2.05205 1 27.2983 -61.4205 -45.9344
78 9.62232 2.05171 1 27.4983 -58.3655 -29.9221
79 9.82232 2.05136 1 27.6983 -60.8746 96.9453
80 10.0223 2.05102 1 27.8983 -53.5268 -88.8817
81 10.2223 2.05067 1 28.0983 -51.7356 143.673
82 10.4223 2.05033 1 28.2983 -57.3373 -83.6325
83 10.6223 2.04999 1 28.4983 -63.8736 154.689
84 10.8223 2.04964 1 28.6983 -52.5104 80.5543
85 9.42197 1.85205 1 30.1125 -52.9887 150.075
86 9.62197 1.85171 1 30.3125 -54.4588 32.8545
87 9.82197 1.85136 1 30.5125 -58.5431 -171.496
88 10.022 1.85102 1 30.7125 -55.9799 -172.338
89 10.222 1.85067 1 30.9125 -52.4075 9.2057
90 10.422 1.85033 1 31.1125 -53.1383 164.156
91 10.622 1.84999 1 31.3125 -48.9674 -31.7597
92 10.822 1.84964 1 31.5125 -51.2619 155.116
93 9.42163 1.65205 1 32.9267 -53.8224 -123.474
94 9.62163 1.65171 1 33.1267 -59.4153 -123.31
95 9.82163 1.65136 1 33.3267 -50.9943 43.8732
96 10.0216 1.65102 1 33.5267 -55.4656 -99.3216
97 10.2216 1.65067 1 33.7267 -58.7235 130.494
98 10.4216 1.65033 1 33.9267 -58.6556 -6.03916
99 10.6216 1.64999 1 34.1267 -58.8523 163.426
100 10.8216 1.64964 1 34.3267 -53.3536 42.4467
101 11.0216 1.6493 1 34.5267 -50.7714 -140.444
102 11.2216 1.64895 1 34.7267 -50.8352 54.6329
103 11.4216 1.64861 1 34.9267 -55.5457 -105.497
104 11.6216 1.64827 1 35.1267 -67.6248 -168.037
105 9.42128 1.45205 1 37.3358 -51.4626 -64.5772
106 9.62128 1.45171 1 37.5358 -52.4867 -160.79
107 9.82128 1.45136 1 37.7358 -53.2137 127.967
108 10.0213 1.45102 1 37.9358 -53.2725 34.1114
109 10.2213 1.45068 1 38.1358 -51.9356 -79.1129
110 10.4213 1.45033 1 38.3358 -53.074 150.58
111 10.6213 1.44999 1 38.5358 -53.9332 -29.4265
112 10.8213 1.44964 1 38.7358 -58.3945 -178.874
113 11.0213 1.4493 1 38.9358 -71.99 -152.627
114 11.2213 1.44895 1 39.1358 -59.9107 -129.558
115 11.4213 1.44861 1 39.3358 -63.4877 18.9244
116 11.6213 1.44827 1 39.5358 -58.5089 -139.407
117 9.42094 1.25205 1 41.7449 -45.9655 18.6016
118 9.62094 1.25171 1 41.9449 -50.0238 -75.4402
119 9.82094 1.25136 1 42.1449 -52.5816 -176.608
120 10.0209 1.25102 1 42.3449 -55.2369 121.734
121 10.2209 1.25068 1 42.5449 -51.1654 8.48325
122 10.4209 1.25033 1 42.7449 -50.959 -91.9371
123 10.6209 1.24999 1 42.9449 -52.6339 120.961
124 10.8209 1.24964 1 43.1449 -51.5267 -7.92256
125 11.0209 1.2493 1 43.3449 -52.2859 -171.98
126 11.2209 1.24896 1 43.5449 -58.5474 67.6977
127 11.4209 1.24861 1 43.7449 -59.417 114.068
128 11.6209 1.24827 1 43.9449 -66.1279 -95.6851
129 9.4206 1.05205 1 46.1539 -51.0327 63.3879
130 9.6206 1.05171 1 46.3539 -47.487 5.8466
131 9.82059 1.05136 1 46.5539 -50.0964 -104.586
132 10.0206 1.05102 1 46.7539 -50.4662 145.93
133 10.2206 1.05068 1 46.9539 -50.3635 44.8371
134 10.4206 1.05033 1 47.1539 -58.0156 -51.8096
135 10.6206 1.04999 1 47.3539 -52.9029 -125.595
136 10.8206 1.04964 1 47.5539 -57.3398 119.337
137 11.0206 1.0493 1 47.7539 -52.7809 -22.6295
138 11.2206 1.04896 1 47.9539 -54.0503 -168.799
139 11.4206 1.04861 1 48.1539 -56.2792 107.335
140 11.6206 1.04827 1 48.3539 -75.1795 72.7447
141 9.42025 0.852052 1 50.563 -47.9639 98.3843
142 9.62025 0.851708 1 50.763 -50.455 10.1317
143 9.82025 0.851364 1 50.963 -52.3537 -45.3655
144 10.0203 0.85102 1 51.163 -47.4357 -138.329
145 10.2203 0.850676 1 51.363 -50.6916 108.139
146 10.4202 0.850332 1 51.563 -48.1347 27.0792
147 10.6202 0.849988 1 51.763 -51.9578 -78.2394
148 10.8202 0.849644 1 51.963 -53.1562 158.542
149 11.0202 0.8493 1 52.163 -59.361 81.914
150 11.2202 0.848956 1 52.363 -52.3397 -55.5775
151 11.4202 0.848612 1 52.563 -56.6337 -166.553
152 11.6202 0.848268 1 52.763 -50.9313 51.8236
153 9.41991 0.652053 1 54.9721 -50.3153 -120.416
154 9.61991 0.651709 1 55.1721 -61.5255 152.857
155 9.81991 0.651365 1 55.3721 -48.2478 -58.3428
156 10.0199 0.65102 1 55.5721 -51.6761 -82.5612
157 10.2199 0.650676 1 55.7721 -47.4935 -174.288
158 10.4199 0.650332 1 55.9721 -50.0961 80.401
159 10.6199 0.649988 1 56.1721 -52.5845 -4.37068
160 10.8199 0.649644 1 56.3721 -49.5517 -97.3194
161 11.0199 0.6493 1 56.5721 -50.6557 111.874
162 11.2199 0.648956 1 56.7721 -70.0069 -80.4432
163 11.4199 0.648612 1 56.9721 -61.4619 173.188
164 11.6199 0.648268 1 57.1721 -57.8991 134.371
165 9.41956 0.452053 1 59.3811 -51.6435 -118.996
166 9.61956 0.451709 1 59.5811 -49.0121 -169.639
167 9.81956 0.451365 1 59.7811 -50.5818 98.0782
168 10.0196 0.451021 1 59.9811 -48.0239 -94.8524
169 10.2196 0.450677 1 60.1811 -49.526 -132.885
170 10.4196 0.450333 1 60.3811 -47.7452 136.741
171 10.6196 0.449988 1 60.5811 -51.7309 26.9964
172 10.8196 0.449644 1 60.7811 -52.878 -50.7447
173 11.0196 0.4493 1 60.9811 -49.8923 -126.478
174 11.2196 0.448956 1 61.1811 -52.0746 87.1209
175 11.4196 0.448612 1 61.3811 -56.9635 -94.8271
176 11.6196 0.448268 1 61.5811 -63.8772 160.671
177 9.41922 0.252053 1 63.7902 -54.9965 -150.396
178 9.61922 0.251709 1 63.9902 -50.9121 173.91
179 9.81922 0.251365 1 64.1902 -50.3639 155.839
180 10.0192 0.251021 1 64.3902 -51.6461 56.2351
181 10.2192 0.250677 1 64.5902 -48.1916 -120.322
182 10.4192 0.250333 1 64.7902 -53.7767 170.251
183 10.6192 0.249989 1 64.9902 -50.0151 100.823
184 10.8192 0.249645 1 65.1902 -47.1967 -18.4604
185 11.0192 0.249301 1 65.3902 -49.1849 -115.205
186 11.2192 0.248957 1 65.5902 -49.5167 170.932
187 11.4192 0.248613 1 65.7902 -48.1204 46.2027
188 11.6192 0.248269 1 65.9902 -58.1208 -57.246
