#Rx
# X(m), Y(m), Z(m), Distance(m), Power (dBm) Phase (deg)
1 9.79195 4.11542 1 9.70514 -61.7511 98.2905
2 9.99195 4.11542 1 9.88398 -63.8262 -67.1718
3 10.1919 4.11542 1 10.0636 -64.661 -166.242
4 10.3919 4.11542 1 10.244 -62.3187 178.713
5 10.5919 4.11542 1 10.4251 -55.8802 -2.36212
6 10.7919 4.11542 1 10.6069 -58.7522 179.369
7 10.9919 4.11542 1 10.7893 -60.6661 36.339
8 11.1919 4.11542 1 10.9724 -58.5535 -119.473
9 11.3919 4.11542 1 11.156 -60.1057 -92.7903
10 11.5919 4.11542 1 11.3402 -62.6286 130.97
11 11.7919 4.11542 1 11.5249 -68.5717 1.05652
12 9.79195 4.31542 1 9.78924 -59.2607 -158.031
13 9.99195 4.31542 1 9.96657 -57.9787 68.2028
14 10.1919 4.31542 1 10.1447 -67.6662 3.962
15 10.3919 4.31542 1 10.3237 -61.4961 175.4
16 10.5919 4.31542 1 10.5034 -60.3136 26.2581
17 10.7919 4.31542 1 10.6839 -66.4254 -77.1427
18 10.9919 4.31542 1 10.865 -63.5105 156.342
19 11.1919 4.31542 1 11.0468 -62.5622 24.642
20 11.3919 4.31542 1 11.2292 -61.7413 -138.672
21 11.5919 4.31542 1 11.4122 -57.5982 39.4057
22 11.7919 4.31542 1 11.5958 -70.4798 -63.5826
23 9.79195 4.51542 1 9.87666 -64.9587 -58.5788
24 9.99195 4.51542 1 10.0524 -63.2113 174.087
25 10.1919 4.51542 1 10.2291 -69.0659 105.375
26 10.3919 4.51542 1 10.4066 -63.778 -56.953
27 10.5919 4.51542 1 10.585 -61.1195 143.504
28 10.7919 4.51542 1 10.764 -60.1358 -22.3283
29 10.9919 4.51542 1 10.9439 -58.7127 156.336
30 11.1919 4.51542 1 11.1244 -67.7145 60.8908
31 11.3919 4.51542 1 11.3055 -63.3518 -7.80987
32 11.5919 4.51542 1 11.4873 -61.0979 -144.989
33 11.7919 4.51542 1 11.6697 -61.1959 -14.3505
34 9.79195 4.71542 1 9.96734 -67.4756 63.1608
35 9.99195 4.71542 1 10.1416 -69.7534 -54.1269
36 10.1919 4.71542 1 10.3167 -71.2314 -96.6713
37 10.3919 4.71542 1 10.4927 -69.3086 -2.33578
38 10.5919 4.71542 1 10.6696 -63.0371 -120.293
39 10.7919 4.71542 1 10.8473 -64.8116 105.745
40 10.9919 4.71542 1 11.0258 -60.7629 -57.3925
41 11.1919 4.71542 1 11.2049 -64.3339 118.759
42 11.3919 4.71542 1 11.3848 -56.7834 -1.26752
43 11.5919 4.71542 1 11.5653 -56.1849 -114.923
44 11.7919 4.71542 1 11.7465 -68.998 121.137
45 9.79195 4.91542 1 10.0612 -66.6133 163.135
46 9.99195 4.91542 1 10.2338 -64.4016 12.0424
47 10.1919 4.91542 1 10.4074 -81.7478 92.6871
48 10.3919 4.91542 1 10.5819 -78.5115 -47.2998
49 10.5919 4.91542 1 10.7573 -71.598 -27.5368
50 10.7919 4.91542 1 10.9336 -65.5422 -173.591
51 10.9919 4.91542 1 11.1107 -74.7317 33.6012
52 11.1919 4.91542 1 11.2885 -65.8683 -97.4222
53 11.3919 4.91542 1 11.467 -63.6844 119.218
54 11.5919 4.91542 1 11.6463 -60.1282 -56.2169
55 11.7919 4.91542 1 11.8262 -60.0596 150.945
56 9.79195 5.11542 1 10.1581 -68.2302 -62.2318
57 9.99195 5.11542 1 10.3291 -71.3374 150.875
58 10.1919 5.11542 1 10.5011 -71.4001 2.31767
59 10.3919 5.11542 1 10.6741 -61.9386 -145.648
60 10.5919 5.11542 1 10.848 -64.2999 45.3422
61 10.7919 5.11542 1 11.0228 -63.8301 -147.819
62 10.9919 5.11542 1 11.1985 -70.0287 85.8265
63 11.1919 5.11542 1 11.3749 -70.7212 20.8528
64 11.3919 5.11542 1 11.5522 -61.4521 -164.773
65 11.5919 5.11542 1 11.7301 -59.1683 71.9244
66 11.7919 5.11542 1 11.9088 -64.2983 -151.592
67 9.79195 5.31542 1 10.258 -66.8799 22.1459
68 9.99195 5.31542 1 10.4273 -75.3672 12.4219
69 10.1919 5.31542 1 10.5978 -73.8453 153.621
70 10.3919 5.31542 1 10.7692 -64.2229 -34.4467
71 10.5919 5.31542 1 10.9416 -63.6497 172.323
72 10.7919 5.31542 1 11.1149 -66.0635 1.40356
73 10.9919 5.31542 1 11.2892 -70.6078 -118.37
74 11.1919 5.31542 1 11.4642 -68.9856 116.043
75 11.3919 5.31542 1 11.6401 -64.3362 -69.1275
76 11.5919 5.31542 1 11.8167 -62.2278 112.719
77 11.7919 5.31542 1 11.9941 -66.9013 -0.0935273
78 9.79195 5.51542 1 10.3608 -76.2061 71.5562
79 9.99195 5.51542 1 10.5285 -72.0211 66.7415
80 10.1919 5.51542 1 10.6973 -70.3092 -143.887
81 10.3919 5.51542 1 10.8671 -64.1569 70.8848
82 10.5919 5.51542 1 11.038 -72.1197 -106.204
83 10.7919 5.51542 1 11.2099 -75.1702 27.8872
84 10.9919 5.51542 1 11.3826 -67.6624 50.4147
85 11.1919 5.51542 1 11.5563 -63.2457 -99.7188
86 11.3919 5.51542 1 11.7308 -69.2404 41.7631
87 11.5919 5.51542 1 11.9061 -62.8299 -131.457
88 11.7919 5.51542 1 12.0821 -65.612 67.0881
89 9.79195 5.71542 1 10.4663 -61.1996 147.474
90 9.99195 5.71542 1 10.6324 -78.5229 30.0418
91 10.1919 5.71542 1 10.7996 -72.0331 -68.2757
92 10.3919 5.71542 1 10.9679 -62.3462 149.014
93 10.5919 5.71542 1 11.1372 -69.0529 15.3387
94 10.7919 5.71542 1 11.3076 -72.6313 108.332
95 10.9919 5.71542 1 11.4788 -66.1205 13.3222
96 11.1919 5.71542 1 11.6511 -72.098 -36.8973
97 11.3919 5.71542 1 11.8241 -73.6239 -128.814
98 11.5919 5.71542 1 11.9981 -73.7735 -47.7088
99 11.7919 5.71542 1 12.1728 -64.7922 -164.691
100 9.79195 5.91542 1 10.5747 -58.5946 -152.206
101 9.99195 5.91542 1 10.739 -69.2929 53.6295
102 10.1919 5.91542 1 10.9046 -74.5879 -32.2329
103 10.3919 5.91542 1 11.0713 -61.8207 -136.753
104 10.5919 5.91542 1 11.2391 -70.7519 72.2502
105 10.7919 5.91542 1 11.4079 -84.4594 33.8387
106 10.9919 5.91542 1 11.5777 -79.5608 128.522
107 11.1919 5.91542 1 11.7485 -66.4261 24.3683
108 11.3919 5.91542 1 11.9201 -65.1555 -115.625
109 11.5919 5.91542 1 12.0927 -67.5044 43.0481
110 11.7919 5.91542 1 12.2661 -68.4337 -115.64
111 9.79195 6.11542 1 10.6857 -58.7325 -118.339
112 9.99195 6.11542 1 10.8483 -68.7631 123.809
113 10.1919 6.11542 1 11.0122 -62.4548 4.62763
114 10.3919 6.11542 1 11.1773 -64.1912 -89.4675
115 10.5919 6.11542 1 11.3436 -63.7394 136.823
116 10.7919 6.11542 1 11.5108 -73.2878 -6.36864
117 10.9919 6.11542 1 11.6792 -75.8568 -165.917
118 11.1919 6.11542 1 11.8485 -69.8921 135.387
119 11.3919 6.11542 1 12.0187 -67.4024 22.3903
120 11.5919 6.11542 1 12.1898 -73.4456 -150.274
121 11.7919 6.11542 1 12.3619 -66.3781 -1.35269
122 9.79195 6.31542 1 10.7992 -56.7319 -101.187
123 9.99195 6.31542 1 10.9602 -67.4317 139.715
124 10.1919 6.31542 1 11.1225 -63.597 33.3039
125 10.3919 6.31542 1 11.2859 -63.2258 -38.9951
126 10.5919 6.31542 1 11.4506 -62.104 -144.973
127 10.7919 6.31542 1 11.6163 -62.0845 79.7055
128 10.9919 6.31542 1 11.7831 -71.5138 -75.4706
129 11.1919 6.31542 1 11.951 -68.6083 171.731
130 11.3919 6.31542 1 12.1198 -64.3903 86.4358
131 11.5919 6.31542 1 12.2895 -68.6721 -16.6182
132 11.7919 6.31542 1 12.4601 -78.2525 -9.08628
133 9.79195 6.51542 1 10.9152 -62.7057 -43.8829
134 9.99195 6.51542 1 11.0745 -59.8919 -143.585
135 10.1919 6.51542 1 11.2351 -57.37 56.2141
136 10.3919 6.51542 1 11.397 -65.2249 -21.2159
137 10.5919 6.51542 1 11.5601 -62.2359 -118.947
138 10.7919 6.51542 1 11.7243 -63.47 157.143
139 10.9919 6.51542 1 11.8895 -68.9598 15.0653
140 11.1919 6.51542 1 12.0559 -65.5612 -151.554
141 11.3919 6.51542 1 12.2232 -62.209 114.88
142 11.5919 6.51542 1 12.3916 -62.3645 28.4491
143 11.7919 6.51542 1 12.5608 -67.7208 -50.9919
144 9.79195 6.71542 1 11.0336 -59.8334 -62.3461
145 9.99195 6.71542 1 11.1913 -61.0554 165.953
146 10.1919 6.71542 1 11.3502 -60.8353 116.902
147 10.3919 6.71542 1 11.5105 -60.5053 21.6084
148 10.5919 6.71542 1 11.6719 -60.7559 -105.876
149 10.7919 6.71542 1 11.8346 -64.7056 -160.594
150 10.9919 6.71542 1 11.9984 -73.2384 5.71862
151 11.1919 6.71542 1 12.1632 -63.4458 -109.61
152 11.3919 6.71542 1 12.3291 -60.8359 164.446
153 11.5919 6.71542 1 12.496 -59.303 56.8729
154 11.7919 6.71542 1 12.6639 -62.5041 -57.2828
155 9.79195 6.91542 1 11.1544 -58.0062 -98.5996
156 9.99195 6.91542 1 11.3103 -62.7966 -171.305
157 10.1919 6.91542 1 11.4676 -57.1429 136.272
158 10.3919 6.91542 1 11.6263 -58.3971 18.5646
159 10.5919 6.91542 1 11.7862 -58.4462 -76.3101
160 10.7919 6.91542 1 11.9472 -65.2606 -118.945
161 10.9919 6.91542 1 12.1095 -66.2982 44.7201
162 11.1919 6.91542 1 12.2729 -63.247 -71.7387
163 11.3919 6.91542 1 12.4373 -65.4417 -150.036
164 11.5919 6.91542 1 12.6028 -62.0287 104.156
165 11.7919 6.91542 1 12.7692 -60.547 -17.7483
166 9.79195 7.11542 1 11.2774 -60.0195 -68.3507
167 9.99195 7.11542 1 11.4317 -55.1748 -148.398
168 10.1919 7.11542 1 11.5873 -57.777 114.197
169 10.3919 7.11542 1 11.7443 -64.0051 74.1694
170 10.5919 7.11542 1 11.9026 -58.0674 -16.1253
171 10.7919 7.11542 1 12.0622 -59.1631 -106.642
172 10.9919 7.11542 1 12.2229 -64.5099 62.7192
173 11.1919 7.11542 1 12.3848 -63.7053 20.8177
174 11.3919 7.11542 1 12.5477 -69.6374 -140.791
175 11.5919 7.11542 1 12.7118 -68.8607 129.636
176 11.7919 7.11542 1 12.8768 -61.8154 34.7188
177 9.79195 7.31542 1 11.4026 -56.165 -73.2061
178 9.99195 7.31542 1 11.5552 -57.6134 -155.803
179 10.1919 7.31542 1 11.7092 -58.2574 145.054
180 10.3919 7.31542 1 11.8646 -58.2519 69.7728
181 10.5919 7.31542 1 12.0213 -60.6285 -42.5505
182 10.7919 7.31542 1 12.1793 -78.8275 -85.0323
183 10.9919 7.31542 1 12.3385 -58.2779 -172.359
184 11.1919 7.31542 1 12.4989 -60.6599 63.95
185 11.3919 7.31542 1 12.6604 -64.0774 -113.677
186 11.5919 7.31542 1 12.823 -64.0471 161.089
187 11.7919 7.31542 1 12.9866 -59.8157 56.0144
188 9.79195 7.51542 1 11.5299 -57.7209 -88.0755
189 9.99195 7.51542 1 11.6808 -58.4651 -139.113
190 10.1919 7.51542 1 11.8332 -58.1674 144.088
191 10.3919 7.51542 1 11.987 -60.0403 52.8018
192 10.5919 7.51542 1 12.1421 -65.1045 12.7271
193 10.7919 7.51542 1 12.2986 -57.6954 -98.8559
194 10.9919 7.51542 1 12.4562 -62.3599 138.776
195 11.1919 7.51542 1 12.6151 -71.6462 98.1282
196 11.3919 7.51542 1 12.7752 -62.8638 -91.4632
197 11.5919 7.51542 1 12.9363 -60.096 -146.542
198 11.7919 7.51542 1 13.0985 -59.9163 84.4791
199 9.79195 7.71542 1 11.6592 -54.8263 -69.2065
200 9.99195 7.71542 1 11.8085 -61.1668 -177.603
201 10.1919 7.71542 1 11.9593 -61.3311 144.736
202 10.3919 7.71542 1 12.1115 -61.2923 57.2456
203 10.5919 7.71542 1 12.265 -58.74 -17.6483
204 10.7919 7.71542 1 12.4199 -59.4153 -110.522
205 10.9919 7.71542 1 12.5761 -65.2401 163.911
206 11.1919 7.71542 1 12.7334 -60.8187 82.9969
207 11.3919 7.71542 1 12.892 -61.0604 -49.5925
208 11.5919 7.71542 1 13.0517 -66.8917 149.964
209 11.7919 7.71542 1 13.2125 -66.8842 129.877
