#Rx
# X(m), Y(m), Z(m), Distance(m), Power (dBm) Phase (deg)
1 9.42507 3.65205 1 0 -57.208 142.795
2 9.62507 3.6517 1 0.2 -56.9973 -9.82506
3 9.82507 3.65136 1 0.4 -55.6582 -175.192
4 10.0251 3.65102 1 0.6 -53.5565 39.7346
5 10.2251 3.65067 1 0.8 -53.3982 -128.039
6 10.4251 3.65033 1 1 -54.1975 52.1396
7 10.6251 3.64998 1 1.2 -55.1121 -111.469
8 10.8251 3.64964 1 1.4 -56.8179 54.0513
9 11.0251 3.6493 1 1.6 -64.9484 -104.518
10 11.2251 3.64895 1 1.8 -61.2639 99.2469
11 11.4251 3.64861 1 2 -60.8855 -81.1949
12 11.6251 3.64826 1 2.2 -59.9753 -157.71
13 9.42472 3.45205 1 4.40907 -62.2818 -12.6018
14 9.62472 3.4517 1 4.60907 -56.4647 165.971
15 9.82472 3.45136 1 4.80907 -52.6771 22.977
16 10.0247 3.45102 1 5.00907 -53.2025 -153.811
17 10.2247 3.45067 1 5.20907 -52.2246 36.5942
18 10.4247 3.45033 1 5.40907 -52.7255 -107.477
19 10.6247 3.44998 1 5.60907 -55.586 95.706
20 10.8247 3.44964 1 5.80907 -55.9411 -92.8573
21 11.0247 3.4493 1 6.00907 -61.4447 131.25
22 11.2247 3.44895 1 6.20907 -55.2096 7.1046
23 11.4247 3.44861 1 6.40907 -56.2877 172.591
24 11.6247 3.44826 1 6.60907 -54.8369 53.5368
25 9.42438 3.25205 1 8.81814 -52.4995 -159.372
26 9.62438 3.2517 1 9.01814 -57.2663 42.3691
27 9.82438 3.25136 1 9.21814 -55.2915 -130.786
28 10.0244 3.25102 1 9.41814 -56.6666 86.0432
29 10.2244 3.25067 1 9.61814 -62.5148 -117.519
30 10.4244 3.25033 1 9.81814 -59.1585 38.9266
31 10.6244 3.24998 1 10.0181 -67.8982 -74.9975
32 10.8244 3.24964 1 10.2181 -56.858 153.451
33 11.0244 3.2493 1 10.4181 -62.453 22.5749
34 11.2244 3.24895 1 10.6181 -55.5679 -154.34
35 11.4244 3.24861 1 10.8181 -52.8394 13.6452
36 11.6244 3.24826 1 11.0181 -52.4852 -157.974
37 9.42404 3.05205 1 13.2272 -53.9214 68.332
38 9.62404 3.05171 1 13.4272 -55.3287 -93.2851
39 9.82404 3.05136 1 13.6272 -59.3311 102.892
40 10.024 3.05102 1 13.8272 -59.4464 45.4738
41 10.224 3.05067 1 14.0272 -55.1961 -171.83
42 10.424 3.05033 1 14.2272 -55.2592 43.2142
43 10.624 3.04998 1 14.4272 -52.8853 -146.167
44 10.824 3.04964 1 14.6272 -53.0832 46.9262
45 9.42369 2.85205 1 16.0414 -57.3982 25.6703
46 9.62369 2.85171 1 16.2414 -54.4243 -178.733
47 9.82369 2.85136 1 16.4414 -56.0526 41.7483
48 10.0237 2.85102 1 16.6414 -54.0549 -164.248
49 10.2237 2.85067 1 16.8414 -51.0069 20.5743
50 10.4237 2.85033 1 17.0414 -50.2076 -153.703
51 10.6237 2.84999 1 17.2414 -50.4517 27.1283
52 10.8237 2.84964 1 17.4414 -75.0225 107.837
53 9.42335 2.65205 1 18.8556 -51.7223 -141.606
54 9.62335 2.65171 1 19.0556 -51.1858 19.7118
55 9.82335 2.65136 1 19.2556 -49.2759 -162.45
56 10.0233 2.65102 1 19.4556 -49.2942 12.5327
57 10.2233 2.65067 1 19.6556 -55.5643 -159.595
58 10.4233 2.65033 1 19.8556 -54.1845 -147.268
59 10.6233 2.64999 1 20.0556 -64.8128 19.6168
60 10.8233 2.64964 1 20.2556 -75.7263 96.968
61 9.423 2.45205 1 21.6699 -47.3327 -12.6324
62 9.623 2.45171 1 21.8699 -55.3919 -157.561
63 9.823 2.45136 1 22.0699 -58.8222 142.817
64 10.023 2.45102 1 22.2699 -59.198 -26.8852
65 10.223 2.45067 1 22.4699 -66.7081 -157.037
66 10.423 2.45033 1 22.6699 -74.4506 146.802
67 10.623 2.44999 1 22.8699 -74.049 -121.84
68 10.823 2.44964 1 23.0699 -58.8342 -79.0603
69 9.42266 2.25205 1 24.4841 -56.728 -7.8236
70 9.62266 2.25171 1 24.6841 -57.6632 -157.066
71 9.82266 2.25136 1 24.8841 -60.1281 61.7004
72 10.0227 2.25102 1 25.0841 -61.7577 66.2593
73 10.2227 2.25067 1 25.2841 -52.5275 -100.518
74 10.4227 2.25033 1 25.4841 -55.3228 87.6691
75 10.6227 2.24999 1 25.6841 -56.2934 -113.752
76 10.8227 2.24964 1 25.8841 -58.6716 51.6779
77 9.42232 2.05205 1 27.2983 -53.1182 48.3949
78 9.62232 2.05171 1 27.4983 -51.3575 -116.022
79 9.82232 2.05136 1 27.6983 -52.8299 70.0418
80 10.0223 2.05102 1 27.8983 -59.177 -134.105
81 10.2223 2.05067 1 28.0983 -57.2381 18.4636
82 10.4223 2.05033 1 28.2983 -57.8861 -166.744
83 10.6223 2.04999 1 28.4983 -56.9356 6.41829
84 10.8223 2.04964 1 28.6983 -56.895 -167.031
85 9.42197 1.85205 1 30.1125 -49.4657 -177.063
86 9.62197 1.85171 1 30.3125 -56.0876 -10.2315
87 9.82197 1.85136 1 30.5125 -52.8237 173.189
88 10.022 1.85102 1 30.7125 -53.3656 -17.0044
89 10.222 1.85067 1 30.9125 -51.9568 145.124
90 10.422 1.85033 1 31.1125 -53.0577 -31.8478
91 10.622 1.84999 1 31.3125 -56.098 151.621
92 10.822 1.84964 1 31.5125 -59.1357 -27.739
93 9.42163 1.65205 1 32.9267 -49.003 9.65408
94 9.62163 1.65171 1 33.1267 -50.5501 -168.1
95 9.82163 1.65136 1 33.3267 -52.4767 -1.95384
96 10.0216 1.65102 1 33.5267 -50.6823 178.228
97 10.2216 1.65067 1 33.7267 -55.4215 -0.0373774
98 10.4216 1.65033 1 33.9267 -68.8898 176.244
99 10.6216 1.64999 1 34.1267 -59.9021 -155.42
100 10.8216 1.64964 1 34.3267 -57.2795 35.1491
101 11.0216 1.6493 1 34.5267 -56.9227 -119.712
102 11.2216 1.64895 1 34.7267 -59.9742 91.9681
103 11.4216 1.64861 1 34.9267 -65.5563 152.09
104 11.6216 1.64827 1 35.1267 -60.7177 -69.1039
105 9.42128 1.45205 1 37.3358 -57.695 142.974
106 9.62128 1.45171 1 37.5358 -59.2494 1.10826
107 9.82128 1.45136 1 37.7358 -58.6608 -105.881
108 10.0213 1.45102 1 37.9358 -56.0382 111.119
109 10.2213 1.45068 1 38.1358 -56.7105 -76.7355
110 10.4213 1.45033 1 38.3358 -63.5687 82.853
111 10.6213 1.44999 1 38.5358 -58.0751 -111.39
112 10.8213 1.44964 1 38.7358 -55.0886 65.4342
113 11.0213 1.4493 1 38.9358 -57.7706 -136.667
114 11.2213 1.44895 1 39.1358 -60.1171 33.9331
115 11.4213 1.44861 1 39.3358 -66.4691 -149.536
116 11.6213 1.44827 1 39.5358 -57.2822 22.9337
117 9.42094 1.25205 1 41.7449 -69.722 -151.234
118 9.62094 1.25171 1 41.9449 -58.4385 -54.5252
119 9.82094 1.25136 1 42.1449 -57.5965 111.557
120 10.0209 1.25102 1 42.3449 -59.7358 -115.474
121 10.2209 1.25068 1 42.5449 -55.0184 39.097
122 10.4209 1.25033 1 42.7449 -57.6574 -115.96
123 10.6209 1.24999 1 42.9449 -54.9876 40.4802
124 10.8209 1.24964 1 43.1449 -53.4834 -156.602
125 11.0209 1.2493 1 43.3449 -51.5621 35.4247
126 11.2209 1.24896 1 43.5449 -51.864 -138.362
127 11.4209 1.24861 1 43.7449 -57.7713 46.6446
128 11.6209 1.24827 1 43.9449 -89.0824 156.449
129 9.4206 1.05205 1 46.1539 -46.9854 -127.991
130 9.6206 1.05171 1 46.3539 -48.6038 39.9423
131 9.82059 1.05136 1 46.5539 -52.006 -163.778
132 10.0206 1.05102 1 46.7539 -50.3278 -24.6089
133 10.2206 1.05068 1 46.9539 -53.7016 137.132
134 10.4206 1.05033 1 47.1539 -53.5293 -25.0183
135 10.6206 1.04999 1 47.3539 -57.8051 169.985
136 10.8206 1.04964 1 47.5539 -66.3175 -86.6401
137 11.0206 1.0493 1 47.7539 -59.5237 69.4596
138 11.2206 1.04896 1 47.9539 -62.9831 -86.8804
139 11.4206 1.04861 1 48.1539 -67.4659 -148.986
140 11.6206 1.04827 1 48.3539 -60.6237 83.071
141 9.42025 0.852052 1 50.563 -50.2481 0.297487
142 9.62025 0.851708 1 50.763 -53.2363 -176.611
143 9.82025 0.851364 1 50.963 -55.8251 24.1497
144 10.0203 0.85102 1 51.163 -55.3761 -120.251
145 10.2203 0.850676 1 51.363 -62.6744 120.625
146 10.4202 0.850332 1 51.563 -54.4843 -51.6752
147 10.6202 0.849988 1 51.763 -65.7567 -142.119
148 10.8202 0.849644 1 51.963 -61.5912 -56.6227
149 11.0202 0.8493 1 52.163 -58.5659 111.46
150 11.2202 0.848956 1 52.363 -62.2193 -86.8571
151 11.4202 0.848612 1 52.563 -59.5617 -5.03454
152 11.6202 0.848268 1 52.763 -52.3322 170.618
153 9.41991 0.652053 1 54.9721 -58.6076 -164.212
154 9.61991 0.651709 1 55.1721 -53.2073 43.2806
155 9.81991 0.651365 1 55.3721 -48.6847 -123.294
156 10.0199 0.65102 1 55.5721 -48.9382 58.6149
157 10.2199 0.650676 1 55.7721 -49.7605 -122.696
158 10.4199 0.650332 1 55.9721 -49.248 45.7401
159 10.6199 0.649988 1 56.1721 -49.9385 -133.117
160 10.8199 0.649644 1 56.3721 -56.7785 -6.48021
161 11.0199 0.6493 1 56.5721 -56.061 -179.583
162 11.2199 0.648956 1 56.7721 -49.5692 -16.9124
163 11.4199 0.648612 1 56.9721 -58.0112 -175.457
164 11.6199 0.648268 1 57.1721 -61.389 -23.2535
165 9.41956 0.452053 1 59.3811 -51.2388 14.0092
166 9.61956 0.451709 1 59.5811 -53.3539 -178.073
167 9.81956 0.451365 1 59.7811 -52.9097 -10.0433
168 10.0196 0.451021 1 59.9811 -52.939 176.744
169 10.2196 0.450677 1 60.1811 -54.0099 -3.68808
170 10.4196 0.450333 1 60.3811 -53.3308 169.909
171 10.6196 0.449988 1 60.5811 -54.1619 -2.94712
172 10.8196 0.449644 1 60.7811 -53.3338 -164.591
173 11.0196 0.4493 1 60.9811 -53.5054 45.314
174 11.2196 0.448956 1 61.1811 -51.5157 -133.13
175 11.4196 0.448612 1 61.3811 -53.4489 31.7387
176 11.6196 0.448268 1 61.5811 -49.2085 -129.268
177 9.41922 0.252053 1 63.7902 -52.8595 78.5883
178 9.61922 0.251709 1 63.9902 -55.0321 -91.225
179 9.81922 0.251365 1 64.1902 -55.7061 94.761
180 10.0192 0.251021 1 64.3902 -55.9865 -69.8766
181 10.2192 0.250677 1 64.5902 -53.1602 150.958
182 10.4192 0.250333 1 64.7902 -52.2039 9.14854
183 10.6192 0.249989 1 64.9902 -50.1328 -160.84
184 10.8192 0.249645 1 65.1902 -48.6817 26.6805
185 11.0192 0.249301 1 65.3902 -47.7536 -151.627
186 11.2192 0.248957 1 65.5902 -48.6666 29.7723
187 11.4192 0.248613 1 65.7902 -49.3546 -153.976
188 11.6192 0.248269 1 65.9902 -49.6495 35.6535
